timestamp(ms),AccelX,AccelY,AccelZ,Accelx,Accely,Accelz,
"1739557825.665","0",,,,,,
"1739557825.667",,"0.02",,,,,
"1739557825.668",,,"0.997",,,,
"1739557825.67",,,,"-5",,,
"1739557825.672",,,,,"-17",,
"1739557825.673",,,,,,"986",
"1739557825.68","-0.002",,,,,,
"1739557825.681",,"0.02",,,,,
"1739557825.683",,,"0.995",,,,
"1739557825.684",,,,"-11",,,
"1739557825.686",,,,,"-18",,
"1739557825.688",,,,,,"983",
"1739557825.694","-0.003",,,,,,
"1739557825.695",,"0.017",,,,,
"1739557825.699",,,"1",,,,
"1739557825.7",,,,"-10",,,
"1739557825.701",,,,,"-26",,
"1739557825.702",,,,,,"998",
"1739557825.708","-0.003",,,,,,
"1739557825.71",,"0.017",,,,,
"1739557825.712",,,"0.997",,,,
"1739557825.713",,,,"-9",,,
"1739557825.714",,,,,"-19",,
"1739557825.716",,,,,,"977",
"1739557825.723","-0.004",,,,,,
"1739557825.725",,"0.016",,,,,
"1739557825.726",,,"0.998",,,,
"1739557825.728",,,,"-14",,,
"1739557825.729",,,,,"-25",,
"1739557825.731",,,,,,"992",
"1739557825.737","-0.005",,,,,,
"1739557825.739",,"0.015",,,,,
"1739557825.74",,,"0.998",,,,
"1739557825.742",,,,"-19",,,
"1739557825.743",,,,,"-27",,
"1739557825.745",,,,,,"986",
"1739557825.752","-0.006",,,,,,
"1739557825.753",,"0.016",,,,,
"1739557825.756",,,"0.998","-14",,,
"1739557825.758",,,,,"-19",,
"1739557825.759",,,,,,"990",
"1739557825.766","-0.006",,,,,,
"1739557825.768",,"0.015",,,,,
"1739557825.769",,,"0.999",,,,
"1739557825.771",,,,"-13",,,
"1739557825.772",,,,,"-23",,
"1739557825.774",,,,,,"990",
"1739557825.78","-0.006",,,,,,
"1739557825.781",,"0.016",,,,,
"1739557825.783",,,"0.998",,,,
"1739557825.785",,,,"-15",,,
"1739557825.786",,,,,"-21",,
"1739557825.788",,,,,,"980",
"1739557825.795","-0.006",,,,,,
"1739557825.797",,"0.015",,,,,
"1739557825.798",,,"0.998",,,,
"1739557825.8",,,,"-12",,,
"1739557825.801",,,,,"-27",,
"1739557825.803",,,,,,"988",
"1739557825.809","-0.007",,,,,,
"1739557825.811",,"0.015",,,,,
"1739557825.812",,,"0.997",,,,
"1739557825.814",,,,"-8",,,
"1739557825.815",,,,,"-17",,
"1739557825.817",,,,,,"980",
"1739557825.824","-0.006",,,,,,
"1739557825.825",,"0.015",,,,,
"1739557825.827",,,"0.999",,,,
"1739557825.828",,,,"-7",,,
"1739557825.83",,,,,"-23",,
"1739557825.831",,,,,,"996",
"1739557825.839","-0.007",,,,,,
"1739557825.84",,"0.015",,,,,
"1739557825.841",,,"0.997",,,,
"1739557825.843",,,,"-16",,,
"1739557825.845",,,,,"-17",,
"1739557825.846",,,,,,"982",
"1739557825.852","-0.007",,,,,,
"1739557825.854",,"0.015",,,,,
"1739557825.855",,,"0.998",,,,
"1739557825.857",,,,"-12",,,
"1739557825.858",,,,,"-23",,
"1739557825.86",,,,,,"985",
"1739557825.867","-0.007",,,,,,
"1739557825.868",,"0.015",,,,,
"1739557825.87",,,"0.998",,,,
"1739557825.871",,,,"-11",,,
"1739557825.873",,,,,"-25",,
"1739557825.875",,,,,,"996",
"1739557825.881","-0.006",,,,,,
"1739557825.882",,"0.016",,,,,
"1739557825.884",,,"0.998",,,,
"1739557825.885",,,,"-14",,,
"1739557825.887",,,,,"-20",,
"1739557825.889",,,,,,"987",
"1739557825.895","-0.007",,,,,,
"1739557825.896",,"0.016",,,,,
"1739557825.898",,,"0.998",,,,
"1739557825.899",,,,"-16",,,
"1739557825.901",,,,,"-20",,
"1739557825.903",,,,,,"987",
"1739557825.91","-0.007",,,,,,
"1739557825.911",,"0.016",,,,,
"1739557825.913",,,"0.997",,,,
"1739557825.914",,,,"-22",,,
"1739557825.916",,,,,"-18",,
"1739557825.918",,,,,,"980",
"1739557825.924","-0.008",,,,,,
"1739557825.925",,"0.016",,,,,
"1739557825.927",,,"0.998",,,,
"1739557825.929",,,,"-18",,,
"1739557825.93",,,,,"-27",,
"1739557825.932",,,,,,"992",
"1739557825.938","-0.008",,,,,,
"1739557825.94",,"0.016",,,,,
"1739557825.941",,,"0.999",,,,
"1739557825.943",,,,"-10",,,
"1739557825.944",,,,,"-20",,
"1739557825.946",,,,,,"995",
"1739557825.953","-0.008",,,,,,
"1739557825.954",,"0.016",,,,,
"1739557825.956",,,"0.999",,,,
"1739557825.957",,,,"-16",,,
"1739557825.959",,,,,"-23",,
"1739557825.961",,,,,,"986",
"1739557825.967","-0.009",,,,,,
"1739557825.969",,"0.016",,,,,
"1739557825.97",,,"0.999",,,,
"1739557825.972",,,,"-18",,,
"1739557825.973",,,,,"-20",,
"1739557825.975",,,,,,"987",
"1739557825.981","-0.009",,,,,,
"1739557825.983",,"0.016",,,,,
"1739557825.984",,,"0.999",,,,
"1739557825.986",,,,"-9",,,
"1739557825.988",,,,,"-16",,
"1739557825.989",,,,,,"989",
"1739557825.996","-0.008",,,,,,
"1739557825.998",,"0.016",,,,,
"1739557825.999",,,"1",,,,
"1739557826.001",,,,"-7",,,
"1739557826.002",,,,,"-24",,
"1739557826.004",,,,,,"996",
"1739557826.01","-0.009",,,,,,
"1739557826.012",,"0.016",,,,,
"1739557826.013",,,"0.999",,,,
"1739557826.015",,,,"-14",,,
"1739557826.016",,,,,"-21",,
"1739557826.018",,,,,,"984",
"1739557826.025","-0.008",,,,,,
"1739557826.026",,"0.016",,,,,
"1739557826.028",,,"1",,,,
"1739557826.029",,,,"-8",,,
"1739557826.031",,,,,"-27",,
"1739557826.033",,,,,,"992",
"1739557826.039","-0.008",,,,,,
"1739557826.04",,"0.015",,,,,
"1739557826.042",,,"0.999",,,,
"1739557826.043",,,,"-19",,,
"1739557826.045",,,,,"-22",,
"1739557826.046",,,,,,"983",
"1739557826.052","-0.008",,,,,,
"1739557826.054",,"0.016",,,,,
"1739557826.055",,,"1",,,,
"1739557826.057",,,,"-16",,,
"1739557826.059",,,,,"-17",,
"1739557826.06",,,,,,"984",
"1739557826.067","-0.007",,,,,,
"1739557826.069",,"0.016",,,,,
"1739557826.07",,,"0.999",,,,
"1739557826.072",,,,"-10",,,
"1739557826.074",,,,,"-24",,
"1739557826.075",,,,,,"984",
"1739557826.081","-0.007",,,,,,
"1739557826.083",,"0.016",,,,,
"1739557826.084",,,"0.998",,,,
"1739557826.086",,,,"-9",,,
"1739557826.088",,,,,"-21",,
"1739557826.089",,,,,,"986",
"1739557826.096","-0.006",,,,,,
"1739557826.098",,"0.016",,,,,
"1739557826.099",,,"0.998",,,,
"1739557826.101",,,,"-10",,,
"1739557826.102",,,,,"-25",,
"1739557826.104",,,,,,"991",
"1739557826.111","-0.006",,,,,,
"1739557826.112",,"0.015",,,,,
"1739557826.113",,,"0.998",,,,
"1739557826.115",,,,"-13",,,
"1739557826.117",,,,,"-21",,
"1739557826.118",,,,,,"984",
"1739557826.125","-0.006",,,,,,
"1739557826.126",,"0.014",,,,,
"1739557826.127",,,"0.998",,,,
"1739557826.129",,,,"-10",,,
"1739557826.131",,,,,"-27",,
"1739557826.132",,,,,,"990",
"1739557826.14","-0.006",,,,,,
"1739557826.141",,"0.015",,,,,
"1739557826.143",,,"0.998",,,,
"1739557826.144",,,,"-10",,,
"1739557826.146",,,,,"-14",,
"1739557826.148",,,,,,"991",
"1739557826.154","-0.006",,,,,,
"1739557826.155",,"0.016",,,,,
"1739557826.157",,,"0.998",,,,
"1739557826.158",,,,"-10",,,
"1739557826.16",,,,,"-14",,
"1739557826.162",,,,,,"985",
"1739557826.168","-0.007",,,,,,
"1739557826.169",,"0.017",,,,,
"1739557826.171",,,"0.998",,,,
"1739557826.172",,,,"-19",,,
"1739557826.174",,,,,"-21",,
"1739557826.176",,,,,,"993",
"1739557826.182","-0.007",,,,,,
"1739557826.183",,"0.017",,,,,
"1739557826.185",,,"0.998",,,,
"1739557826.186",,,,"-17",,,
"1739557826.188",,,,,"-22",,
"1739557826.19",,,,,,"988",
"1739557826.196","-0.007",,,,,,
"1739557826.197",,"0.016",,,,,
"1739557826.199",,,"0.999",,,,
"1739557826.2",,,,"-16",,,
"1739557826.203",,,,,"-21",,
"1739557826.204",,,,,,"987",
"1739557826.211","-0.006",,,,,,
"1739557826.212",,"0.016",,,,,
"1739557826.214",,,"0.999",,,,
"1739557826.215",,,,"-9",,,
"1739557826.217",,,,,"-24",,
"1739557826.219",,,,,,"987",
"1739557826.225","-0.007",,,,,,
"1739557826.227",,"0.016",,,,,
"1739557826.228",,,"0.999",,,,
"1739557826.23",,,,"-18",,,
"1739557826.231",,,,,"-25",,
"1739557826.233",,,,,,"987",
"1739557826.239","-0.007",,,,,,
"1739557826.241",,"0.016",,,,,
"1739557826.243",,,"0.998",,,,
"1739557826.244",,,,"-8",,,
"1739557826.246",,,,,"-24",,
"1739557826.247",,,,,,"981",
"1739557826.254","-0.007",,,,,,
"1739557826.256",,"0.016",,,,,
"1739557826.257",,,"0.998",,,,
"1739557826.259",,,,"-10",,,
"1739557826.26",,,,,"-21",,
"1739557826.262",,,,,,"984",
"1739557826.268","-0.007",,,,,,
"1739557826.27",,"0.017",,,,,
"1739557826.271",,,"0.998",,,,
"1739557826.273",,,,"-14",,,
"1739557826.274",,,,,"-17",,
"1739557826.276",,,,,,"992",
"1739557826.283","-0.008",,,,,,
"1739557826.284",,"0.016",,,,,
"1739557826.286",,,"0.998",,,,
"1739557826.287",,,,"-15",,,
"1739557826.289",,,,,"-20",,
"1739557826.291",,,,,,"986",
"1739557826.297","-0.008",,,,,,
"1739557826.299",,"0.015",,,,,
"1739557826.3",,,"0.998",,,,
"1739557826.302",,,,"-15",,,
"1739557826.303",,,,,"-26",,
"1739557826.305",,,,,,"989",
"1739557826.311","-0.008",,,,,,
"1739557826.313",,"0.015",,,,,
"1739557826.314",,,"0.998",,,,
"1739557826.316",,,,"-15",,,
"1739557826.318",,,,,"-24",,
"1739557826.319",,,,,,"986",
"1739557826.326","-0.008",,,,,,
"1739557826.327",,"0.016",,,,,
"1739557826.329",,,"0.997",,,,
"1739557826.33",,,,"-16",,,
"1739557826.332",,,,,"-15",,
"1739557826.333",,,,,,"986",
"1739557826.34","-0.007",,,,,,
"1739557826.341",,"0.016",,,,,
"1739557826.343",,,"0.998",,,,
"1739557826.344",,,,"-11",,,
"1739557826.346",,,,,"-19",,
"1739557826.348",,,,,,"990",
"1739557826.354","-0.008",,,,,,
"1739557826.355",,"0.016",,,,,
"1739557826.357",,,"0.998",,,,
"1739557826.358",,,,"-14",,,
"1739557826.36",,,,,"-20",,
"1739557826.361",,,,,,"987",
"1739557826.368","-0.007",,,,,,
"1739557826.37",,"0.016",,,,,
"1739557826.371",,,"0.998",,,,
"1739557826.373",,,,"-15",,,
"1739557826.375",,,,,"-24",,
"1739557826.376",,,,,,"988",
"1739557826.383","-0.008",,,,,,
"1739557826.384",,"0.016",,,,,
"1739557826.386",,,"0.998",,,,
"1739557826.387",,,,"-15",,,
"1739557826.389",,,,,"-26",,
"1739557826.39",,,,,,"984",
"1739557826.397","-0.008",,,,,,
"1739557826.399",,"0.016",,,,,
"1739557826.4",,,"0.999",,,,
"1739557826.402",,,,"-6",,,
"1739557826.403",,,,,"-18",,
"1739557826.405",,,,,,"994",
"1739557826.411","-0.008",,,,,,
"1739557826.413",,"0.016",,,,,
"1739557826.414",,,"0.999",,,,
"1739557826.416",,,,"-15",,,
"1739557826.417",,,,,"-22",,
"1739557826.419",,,,,,"992",
"1739557826.425","-0.007",,,,,,
"1739557826.427",,"0.016",,,,,
"1739557826.428",,,"0.999",,,,
"1739557826.43",,,,"-11",,,
"1739557826.431",,,,,"-21",,
"1739557826.433",,,,,,"987",
"1739557826.44","-0.007",,,,,,
"1739557826.441",,"0.016",,,,,
"1739557826.443",,,"0.999",,,,
"1739557826.444",,,,"-14",,,
"1739557826.446",,,,,"-19",,
"1739557826.448",,,,,,"986",
"1739557826.453","-0.007",,,,,,
"1739557826.455",,"0.017",,,,,
"1739557826.456",,,"0.999",,,,
"1739557826.458",,,,"-15",,,
"1739557826.46",,,,,"-21",,
"1739557826.461",,,,,,"988",
"1739557826.468","-0.008",,,,,,
"1739557826.469",,"0.016",,,,,
"1739557826.471",,,"0.999",,,,
"1739557826.472",,,,"-18",,,
"1739557826.474",,,,,"-19",,
"1739557826.476",,,,,,"984",
"1739557826.482","-0.008",,,,,,
"1739557826.483",,"0.016",,,,,
"1739557826.485",,,"0.999",,,,
"1739557826.487",,,,"-20",,,
"1739557826.488",,,,,"-26",,
"1739557826.49",,,,,,"989",
"1739557826.496","-0.009",,,,,,
"1739557826.499",,"0.015","0.998",,,,
"1739557826.501",,,,"-18",,,
"1739557826.502",,,,,"-27",,
"1739557826.505",,,,,,"984",
"1739557826.511","-0.008",,,,,,
"1739557826.513",,"0.015",,,,,
"1739557826.514",,,"0.998",,,,
"1739557826.516",,,,"-11",,,
"1739557826.517",,,,,"-21",,
"1739557826.519",,,,,,"983",
"1739557826.525","-0.008",,,,,,
"1739557826.527",,"0.016",,,,,
"1739557826.528",,,"0.999",,,,
"1739557826.53",,,,"-9",,,
"1739557826.531",,,,,"-23",,
"1739557826.533",,,,,,"990",
"1739557826.539","-0.008",,,,,,
"1739557826.541",,"0.015",,,,,
"1739557826.542",,,"0.998",,,,
"1739557826.544",,,,"-8",,,
"1739557826.545",,,,,"-20",,
"1739557826.547",,,,,,"988",
"1739557826.553","-0.008",,,,,,
"1739557826.555",,"0.016",,,,,
"1739557826.556",,,"0.997",,,,
"1739557826.558",,,,"-13",,,
"1739557826.559",,,,,"-18",,
"1739557826.561",,,,,,"982",
"1739557826.567","-0.008",,,,,,
"1739557826.569",,"0.016",,,,,
"1739557826.57",,,"0.998",,,,
"1739557826.572",,,,"-12",,,
"1739557826.573",,,,,"-20",,
"1739557826.575",,,,,,"994",
"1739557826.582","-0.008",,,,,,
"1739557826.584",,"0.016",,,,,
"1739557826.585",,,"0.998",,,,
"1739557826.587",,,,"-11",,,
"1739557826.589",,,,,"-22",,
"1739557826.59",,,,,,"987",
"1739557826.597","-0.007",,,,,,
"1739557826.598",,"0.015",,,,,
"1739557826.599",,,"0.997",,,,
"1739557826.601",,,,"-10",,,
"1739557826.603",,,,,"-25",,
"1739557826.604",,,,,,"985",
"1739557826.611","-0.007",,,,,,
"1739557826.612",,"0.015",,,,,
"1739557826.614",,,"0.997",,,,
"1739557826.615",,,,"-13",,,
"1739557826.617",,,,,"-25",,
"1739557826.619",,,,,,"983",
"1739557826.626","-0.006",,,,,,
"1739557826.627",,"0.014",,,,,
"1739557826.628",,,"0.998",,,,
"1739557826.63",,,,"-18",,,
"1739557826.632",,,,,"-27",,
"1739557826.633",,,,,,"993",
"1739557826.64","-0.006",,,,,,
"1739557826.641",,"0.015",,,,,
"1739557826.642",,,"0.998",,,,
"1739557826.644",,,,"-16",,,
"1739557826.646",,,,,"-25",,
"1739557826.647",,,,,,"983",
"1739557826.655","-0.007",,,,,,
"1739557826.656",,"0.015",,,,,
"1739557826.658",,,"0.998",,,,
"1739557826.659",,,,"-15",,,
"1739557826.661",,,,,"-21",,
"1739557826.663",,,,,,"982",
"1739557826.669","-0.007",,,,,,
"1739557826.67",,"0.015",,,,,
"1739557826.672",,,"0.998",,,,
"1739557826.673",,,,"-12",,,
"1739557826.675",,,,,"-24",,
"1739557826.677",,,,,,"991",
"1739557826.683","-0.007",,,,,,
"1739557826.684",,"0.014",,,,,
"1739557826.686",,,"0.998",,,,
"1739557826.687",,,,"-7",,,
"1739557826.689",,,,,"-28",,
"1739557826.69",,,,,,"990",
"1739557826.698","-0.007",,,,,,
"1739557826.699",,"0.013",,,,,
"1739557826.701",,,"0.999",,,,
"1739557826.702",,,,"-10",,,
"1739557826.704",,,,,"-30",,
"1739557826.706",,,,,,"993",
"1739557826.712","-0.006",,,,,,
"1739557826.713",,"0.013",,,,,
"1739557826.714",,,"0.998",,,,
"1739557826.716",,,,"-11",,,
"1739557826.718",,,,,"-15",,
"1739557826.719",,,,,,"988",
"1739557826.726","-0.007",,,,,,
"1739557826.728",,"0.014",,,,,
"1739557826.729",,,"0.998",,,,
"1739557826.731",,,,"-17",,,
"1739557826.732",,,,,"-17",,
"1739557826.734",,,,,,"988",
"1739557826.741","-0.007",,,,,,
"1739557826.742",,"0.014",,,,,
"1739557826.744",,,"0.999",,,,
"1739557826.745",,,,"-13",,,
"1739557826.747",,,,,"-20",,
"1739557826.749",,,,,,"991",
"1739557826.755","-0.007",,,,,,
"1739557826.756",,"0.014",,,,,
"1739557826.758",,,"0.999",,,,
"1739557826.759",,,,"-10",,,
"1739557826.761",,,,,"-29",,
"1739557826.763",,,,,,"983",
"1739557826.77","-0.007",,,,,,
"1739557826.771",,"0.014",,,,,
"1739557826.773",,,"0.999",,,,
"1739557826.774",,,,"-14",,,
"1739557826.776",,,,,"-26",,
"1739557826.777",,,,,,"991",
"1739557826.784","-0.006",,,,,,
"1739557826.786",,"0.014",,,,,
"1739557826.787",,,"0.999",,,,
"1739557826.789",,,,"-13",,,
"1739557826.79",,,,,"-19",,
"1739557826.792",,,,,,"988",
"1739557826.798","-0.007",,,,,,
"1739557826.8",,"0.015",,,,,
"1739557826.801",,,"1.001",,,,
"1739557826.803",,,,"-19",,,
"1739557826.804",,,,,"-13",,
"1739557826.806",,,,,,"997",
"1739557826.813","-0.007",,,,,,
"1739557826.815",,"0.015",,,,,
"1739557826.816",,,"1.001",,,,
"1739557826.817",,,,"-11",,,
"1739557826.819",,,,,"-21",,
"1739557826.821",,,,,,"991",
"1739557826.826","-0.006",,,,,,
"1739557826.828",,"0.016",,,,,
"1739557826.829",,,"1",,,,
"1739557826.831",,,,"-4",,,
"1739557826.833",,,,,"-22",,
"1739557826.834",,,,,,"985",
"1739557826.84","-0.006",,,,,,
"1739557826.842",,"0.016",,,,,
"1739557826.843",,,"1",,,,
"1739557826.845",,,,"-10",,,
"1739557826.847",,,,,"-26",,
"1739557826.848",,,,,,"988",
"1739557826.854","-0.006",,,,,,
"1739557826.856",,"0.016",,,,,
"1739557826.857",,,"0.999",,,,
"1739557826.859",,,,"-7",,,
"1739557826.861",,,,,"-15",,
"1739557826.862",,,,,,"982",
"1739557826.868","-0.005",,,,,,
"1739557826.87",,"0.017",,,,,
"1739557826.871",,,"0.999",,,,
"1739557826.873",,,,"-12",,,
"1739557826.874",,,,,"-10",,
"1739557826.876",,,,,,"982",
"1739557826.883","-0.005",,,,,,
"1739557826.885",,"0.017",,,,,
"1739557826.886",,,"0.999",,,,
"1739557826.888",,,,"-13",,,
"1739557826.889",,,,,"-19",,
"1739557826.891",,,,,,"993",
"1739557826.897","-0.006",,,,,,
"1739557826.898",,"0.018",,,,,
"1739557826.9",,,"1",,,,
"1739557826.902",,,,"-16",,,
"1739557826.903",,,,,"-24",,
"1739557826.905",,,,,,"991",
"1739557826.911","-0.006",,,,,,
"1739557826.912",,"0.018",,,,,
"1739557826.914",,,"1",,,,
"1739557826.915",,,,"-9",,,
"1739557826.917",,,,,"-24",,
"1739557826.919",,,,,,"996",
"1739557826.926","-0.006",,,,,,
"1739557826.927",,"0.018",,,,,
"1739557826.928",,,"1",,,,
"1739557826.93",,,,"-16",,,
"1739557826.932",,,,,"-15",,
"1739557826.933",,,,,,"990",
"1739557826.94","-0.007",,,,,,
"1739557826.941",,"0.018",,,,,
"1739557826.943",,,"0.999",,,,
"1739557826.944",,,,"-26",,,
"1739557826.946",,,,,"-14",,
"1739557826.948",,,,,,"987",
"1739557826.954","-0.007",,,,,,
"1739557826.956",,"0.018",,,,,
"1739557826.957",,,"0.999",,,,
"1739557826.959",,,,"-17",,,
"1739557826.96",,,,,"-23",,
"1739557826.962",,,,,,"988",
"1739557826.969","-0.008",,,,,,
"1739557826.97",,"0.017",,,,,
"1739557826.972",,,"0.999",,,,
"1739557826.973",,,,"-9",,,
"1739557826.975",,,,,"-29",,
"1739557826.977",,,,,,"988",
"1739557826.983","-0.007",,,,,,
"1739557826.984",,"0.018",,,,,
"1739557826.985",,,"0.999",,,,
"1739557826.987",,,,"-7",,,
"1739557826.989",,,,,"-24",,
"1739557826.99",,,,,,"984",
"1739557826.997","-0.008",,,,,,
"1739557826.998",,"0.017",,,,,
"1739557827",,,"0.999",,,,
"1739557827.002",,,,"-11",,,
"1739557827.003",,,,,"-25",,
"1739557827.005",,,,,,"983",
"1739557827.011","-0.008",,,,,,
"1739557827.012",,"0.016",,,,,
"1739557827.014",,,"1",,,,
"1739557827.015",,,,"-12",,,
"1739557827.017",,,,,"-17",,
"1739557827.019",,,,,,"988",
"1739557827.025","-0.007",,,,,,
"1739557827.027",,"0.016",,,,,
"1739557827.028",,,"0.999",,,,
"1739557827.03",,,,"-6",,,
"1739557827.031",,,,,"-13",,
"1739557827.033",,,,,,"990",
"1739557827.04","-0.007",,,,,,
"1739557827.042",,"0.016",,,,,
"1739557827.043",,,"0.999",,,,
"1739557827.045",,,,"-13",,,
"1739557827.046",,,,,"-27",,
"1739557827.048",,,,,,"989",
"1739557827.054","-0.007",,,,,,
"1739557827.056",,"0.016",,,,,
"1739557827.057",,,"0.998",,,,
"1739557827.059",,,,"-13",,,
"1739557827.06",,,,,"-27",,
"1739557827.062",,,,,,"989",
"1739557827.069","-0.007",,,,,,
"1739557827.07",,"0.015",,,,,
"1739557827.072",,,"0.999",,,,
"1739557827.074",,,,"-17",,,
"1739557827.075",,,,,"-23",,
"1739557827.077",,,,,,"993",
"1739557827.083","-0.007",,,,,,
"1739557827.085",,"0.014",,,,,
"1739557827.086",,,"0.998",,,,
"1739557827.088",,,,"-20",,,
"1739557827.09",,,,,"-20",,
"1739557827.091",,,,,,"983",
"1739557827.097","-0.007",,,,,,
"1739557827.099",,"0.014",,,,,
"1739557827.1",,,"0.998",,,,
"1739557827.102",,,,"-16",,,
"1739557827.104",,,,,"-23",,
"1739557827.105",,,,,,"987",
"1739557827.112","-0.007",,,,,,
"1739557827.115",,"0.015","0.997",,,,
"1739557827.117",,,,"-15",,,
"1739557827.119",,,,,"-27",,
"1739557827.12",,,,,,"980",
"1739557827.126","-0.008",,,,,,
"1739557827.128",,"0.015",,,,,
"1739557827.129",,,"0.998",,,,
"1739557827.131",,,,"-14",,,
"1739557827.133",,,,,"-24",,
"1739557827.134",,,,,,"990",
"1739557827.141","-0.008",,,,,,
"1739557827.142",,"0.015",,,,,
"1739557827.143",,,"0.999",,,,
"1739557827.145",,,,"-8",,,
"1739557827.147",,,,,"-23",,
"1739557827.149",,,,,,"988",
"1739557827.155","-0.008",,,,,,
"1739557827.156",,"0.015",,,,,
"1739557827.157",,,"0.998",,,,
"1739557827.159",,,,"-13",,,
"1739557827.161",,,,,"-18",,
"1739557827.162",,,,,,"985",
"1739557827.169","-0.008",,,,,,
"1739557827.17",,"0.014",,,,,
"1739557827.172",,,"0.998",,,,
"1739557827.173",,,,"-9",,,
"1739557827.175",,,,,"-19",,
"1739557827.176",,,,,,"988",
"1739557827.184","-0.008",,,,,,
"1739557827.185",,"0.014",,,,,
"1739557827.187",,,"0.998",,,,
"1739557827.189",,,,"-10",,,
"1739557827.19",,,,,"-28",,
"1739557827.192",,,,,,"988",
"1739557827.198","-0.007",,,,,,
"1739557827.199",,"0.014",,,,,
"1739557827.201",,,"0.998",,,,
"1739557827.202",,,,"-11",,,
"1739557827.204",,,,,"-29",,
"1739557827.206",,,,,,"988",
"1739557827.212","-0.007",,,,,,
"1739557827.213",,"0.014",,,,,
"1739557827.215",,,"0.997",,,,
"1739557827.216",,,,"-17",,,
"1739557827.218",,,,,"-23",,
"1739557827.22",,,,,,"988",
"1739557827.226","-0.007",,,,,,
"1739557827.227",,"0.014",,,,,
"1739557827.229",,,"0.997",,,,
"1739557827.23",,,,"-13",,,
"1739557827.232",,,,,"-17",,
"1739557827.234",,,,,,"980",
"1739557827.24","-0.007",,,,,,
"1739557827.241",,"0.014",,,,,
"1739557827.243",,,"0.996",,,,
"1739557827.244",,,,"-15",,,
"1739557827.246",,,,,"-21",,
"1739557827.248",,,,,,"980",
"1739557827.255","-0.007",,,,,,
"1739557827.256",,"0.014",,,,,
"1739557827.258",,,"0.997",,,,
"1739557827.259",,,,"-16",,,
"1739557827.261",,,,,"-29",,
"1739557827.263",,,,,,"986",
"1739557827.269","-0.006",,,,,,
"1739557827.271",,"0.014",,,,,
"1739557827.272",,,"0.998",,,,
"1739557827.274",,,,"-7",,,
"1739557827.275",,,,,"-28",,
"1739557827.277",,,,,,"1001",
"1739557827.283","-0.006",,,,,,
"1739557827.285",,"0.014",,,,,
"1739557827.286",,,"0.999",,,,
"1739557827.288",,,,"-6",,,
"1739557827.289",,,,,"-18",,
"1739557827.291",,,,,,"996",
"1739557827.298","-0.006",,,,,,
"1739557827.3",,"0.014",,,,,
"1739557827.301",,,"0.999",,,,
"1739557827.303",,,,"-13",,,
"1739557827.304",,,,,"-17",,
"1739557827.306",,,,,,"987",
"1739557827.312","-0.006",,,,,,
"1739557827.314",,"0.014",,,,,
"1739557827.315",,,"0.999",,,,
"1739557827.317",,,,"-13",,,
"1739557827.319",,,,,"-18",,
"1739557827.32",,,,,,"983",
"1739557827.327","-0.006",,,,,,
"1739557827.328",,"0.015",,,,,
"1739557827.33",,,"0.998",,,,
"1739557827.331",,,,"-10",,,
"1739557827.333",,,,,"-22",,
"1739557827.334",,,,,,"987",
"1739557827.342","-0.006",,,,,,
"1739557827.343",,"0.015",,,,,
"1739557827.344",,,"0.998",,,,
"1739557827.346",,,,"-13",,,
"1739557827.347",,,,,"-28",,
"1739557827.349",,,,,,"981",
"1739557827.355","-0.006",,,,,,
"1739557827.357",,"0.015",,,,,
"1739557827.358",,,"0.998",,,,
"1739557827.36",,,,"-15",,,
"1739557827.361",,,,,"-21",,
"1739557827.363",,,,,,"986",
"1739557827.37","-0.007",,,,,,
"1739557827.372",,"0.015",,,,,
"1739557827.373",,,"0.998",,,,
"1739557827.375",,,,"-21",,,
"1739557827.377",,,,,"-17",,
"1739557827.378",,,,,,"989",
"1739557827.384","-0.007",,,,,,
"1739557827.386",,"0.016",,,,,
"1739557827.387",,,"0.999",,,,
"1739557827.389",,,,"-16",,,
"1739557827.391",,,,,"-16",,
"1739557827.392",,,,,,"990",
"1739557827.399","-0.007",,,,,,
"1739557827.4",,"0.017",,,,,
"1739557827.402",,,"1",,,,
"1739557827.403",,,,"-12",,,
"1739557827.405",,,,,"-22",,
"1739557827.406",,,,,,"990",
"1739557827.414","-0.007",,,,,,
"1739557827.415",,"0.017",,,,,
"1739557827.417",,,"0.999",,,,
"1739557827.418",,,,"-10",,,
"1739557827.42",,,,,"-26",,
"1739557827.421",,,,,,"989",
"1739557827.428","-0.008",,,,,,
"1739557827.429",,"0.016",,,,,
"1739557827.431",,,"0.997",,,,
"1739557827.432",,,,"-15",,,
"1739557827.434",,,,,"-23",,
"1739557827.436",,,,,,"983",
"1739557827.442","-0.008",,,,,,
"1739557827.444",,"0.016",,,,,
"1739557827.445",,,"0.997",,,,
"1739557827.447",,,,"-12",,,
"1739557827.448",,,,,"-16",,
"1739557827.45",,,,,,"986",
"1739557827.457","-0.008",,,,,,
"1739557827.458",,"0.016",,,,,
"1739557827.46",,,"0.998",,,,
"1739557827.461",,,,"-16",,,
"1739557827.463",,,,,"-21",,
"1739557827.465",,,,,,"986",
"1739557827.471","-0.008",,,,,,
"1739557827.472",,"0.017",,,,,
"1739557827.474",,,"0.997",,,,
"1739557827.475",,,,"-12",,,
"1739557827.477",,,,,"-17",,
"1739557827.479",,,,,,"986",
"1739557827.486","-0.008",,,,,,
"1739557827.487",,"0.017",,,,,
"1739557827.489",,,"0.999",,,,
"1739557827.49",,,,"-11",,,
"1739557827.492",,,,,"-23",,
"1739557827.494",,,,,,"993",
"1739557827.5","-0.008",,,,,,
"1739557827.502",,"0.017",,,,,
"1739557827.503",,,"0.998",,,,
"1739557827.505",,,,"-10",,,
"1739557827.506",,,,,"-26",,
"1739557827.508",,,,,,"984",
"1739557827.514","-0.008",,,,,,
"1739557827.515",,"0.017",,,,,
"1739557827.517",,,"0.998",,,,
"1739557827.519",,,,"-20",,,
"1739557827.52",,,,,"-16",,
"1739557827.522",,,,,,"984",
"1739557827.528","-0.007",,,,,,
"1739557827.529",,"0.016",,,,,
"1739557827.531",,,"0.998",,,,
"1739557827.533",,,,"-13",,,
"1739557827.534",,,,,"-24",,
"1739557827.536",,,,,,"993",
"1739557827.542","-0.007",,,,,,
"1739557827.544",,"0.016",,,,,
"1739557827.545",,,"0.998",,,,
"1739557827.546",,,,"-13",,,
"1739557827.548",,,,,"-20",,
"1739557827.55",,,,,,"989",
"1739557827.557","-0.007",,,,,,
"1739557827.558",,"0.016",,,,,
"1739557827.56",,,"0.998",,,,
"1739557827.561",,,,"-8",,,
"1739557827.563",,,,,"-25",,
"1739557827.566",,,,,,"985",
"1739557827.571","-0.007",,,,,,
"1739557827.573",,"0.016",,,,,
"1739557827.574",,,"0.998",,,,
"1739557827.576",,,,"-15",,,
"1739557827.577",,,,,"-20",,
"1739557827.579",,,,,,"985",
"1739557827.585","-0.007",,,,,,
"1739557827.587",,"0.016",,,,,
"1739557827.588",,,"0.998",,,,
"1739557827.59",,,,"-11",,,
"1739557827.592",,,,,"-17",,
"1739557827.593",,,,,,"984",
"1739557827.6","-0.007",,,,,,
"1739557827.602",,"0.017",,,,,
"1739557827.603",,,"0.998",,,,
"1739557827.606",,,,"-18",,,
"1739557827.607",,,,,"-15",,
"1739557827.608",,,,,,"988",
"1739557827.615","-0.007",,,,,,
"1739557827.616",,"0.017",,,,,
"1739557827.617",,,"0.998",,,,
"1739557827.619",,,,"-9",,,
"1739557827.62",,,,,"-19",,
"1739557827.622",,,,,,"986",
"1739557827.629","-0.007",,,,,,
"1739557827.63",,"0.017",,,,,
"1739557827.632",,,"0.998",,,,
"1739557827.633",,,,"-12",,,
"1739557827.635",,,,,"-24",,
"1739557827.637",,,,,,"989",
"1739557827.642","-0.008",,,,,,
"1739557827.645",,"0.017","0.998",,,,
"1739557827.647",,,,"-16",,,
"1739557827.649",,,,,"-19",,
"1739557827.65",,,,,,"990",
"1739557827.656","-0.006",,,,,,
"1739557827.658",,"0.017",,,,,
"1739557827.659",,,"1.005",,,,
"1739557827.661",,,,"-7",,,
"1739557827.663",,,,,"-24",,
"1739557827.664",,,,,,"1057",
"1739557827.671","-0.008",,,,,,
"1739557827.672",,"0.017",,,,,
"1739557827.674",,,"1.001",,,,
"1739557827.675",,,,"-27",,,
"1739557827.677",,,,,"-17",,
"1739557827.679",,,,,,"951",
"1739557827.685","-0.008",,,,,,
"1739557827.687",,"0.016",,,,,
"1739557827.688",,,"1.001",,,,
"1739557827.689",,,,"-19",,,
"1739557827.691",,,,,"-28",,
"1739557827.692",,,,,,"987",
"1739557827.7","-0.008",,,,,,
"1739557827.701",,"0.016",,,,,
"1739557827.703",,,"1",,,,
"1739557827.704",,,,"-7",,,
"1739557827.706",,,,,"-26",,
"1739557827.707",,,,,,"979",
"1739557827.714","-0.009",,,,,,
"1739557827.715",,"0.016",,,,,
"1739557827.717",,,"1.001",,,,
"1739557827.718",,,,"-18",,,
"1739557827.72",,,,,"-23",,
"1739557827.721",,,,,,"994",
"1739557827.728","-0.009",,,,,,
"1739557827.73",,"0.016",,,,,
"1739557827.731",,,"1.004",,,,
"1739557827.733",,,,"-16",,,
"1739557827.734",,,,,"-20",,
"1739557827.736",,,,,,"1013",
"1739557827.743","-0.008",,,,,,
"1739557827.744",,"0.014",,,,,
"1739557827.746",,,"1.002",,,,
"1739557827.747",,,,"-8",,,
"1739557827.749",,,,,"-30",,
"1739557827.751",,,,,,"962",
"1739557827.757","-0.008",,,,,,
"1739557827.758",,"0.014",,,,,
"1739557827.76",,,"1.002",,,,
"1739557827.761",,,,"-12",,,
"1739557827.763",,,,,"-17",,
"1739557827.765",,,,,,"994",
"1739557827.771","0.017",,,,,,
"1739557827.772",,"0.014",,,,,
"1739557827.774",,,"1.001",,,,
"1739557827.776",,,,"254",,,
"1739557827.777",,,,,"-29",,
"1739557827.779",,,,,,"977",
"1739557827.786","0.017",,,,,,
"1739557827.787",,"0.013",,,,,
"1739557827.789",,,"1.001",,,,
"1739557827.79",,,,"-18",,,
"1739557827.792",,,,,"-24",,
"1739557827.794",,,,,,"983",
"1739557827.8","0.016",,,,,,
"1739557827.801",,"0.014",,,,,
"1739557827.803",,,"0.994",,,,
"1739557827.804",,,,"-22",,,
"1739557827.806",,,,,"-14",,
"1739557827.808",,,,,,"990",
"1739557827.815","0.017",,,,,,
"1739557827.816",,"0.015",,,,,
"1739557827.817",,,"0.997",,,,
"1739557827.819",,,,"-11",,,
"1739557827.821",,,,,"-16",,
"1739557827.822",,,,,,"980",
"1739557827.829","0.017",,,,,,
"1739557827.83",,"0.016",,,,,
"1739557827.832",,,"0.998",,,,
"1739557827.834",,,,"-16",,,
"1739557827.835",,,,,"-16",,
"1739557827.837",,,,,,"999",
"1739557827.843","0.017",,,,,,
"1739557827.844",,"0.016",,,,,
"1739557827.846",,,"0.998",,,,
"1739557827.847",,,,"-16",,,
"1739557827.849",,,,,"-28",,
"1739557827.851",,,,,,"979",
"1739557827.857","0.017",,,,,,
"1739557827.859",,"0.015",,,,,
"1739557827.86",,,"0.997",,,,
"1739557827.862",,,,"-16",,,
"1739557827.863",,,,,"-27",,
"1739557827.865",,,,,,"989",
"1739557827.871","0.017",,,,,,
"1739557827.873",,"0.015",,,,,
"1739557827.874",,,"0.995",,,,
"1739557827.876",,,,"-17",,,
"1739557827.878",,,,,"-25",,
"1739557827.879",,,,,,"985",
"1739557827.885","0.017",,,,,,
"1739557827.887",,"0.016",,,,,
"1739557827.888",,,"0.997",,,,
"1739557827.89",,,,"-7",,,
"1739557827.891",,,,,"-21",,
"1739557827.893",,,,,,"984",
"1739557827.9","0.017",,,,,,
"1739557827.902",,"0.016",,,,,
"1739557827.903",,,"0.997",,,,
"1739557827.905",,,,"-6",,,
"1739557827.906",,,,,"-13",,
"1739557827.908",,,,,,"992",
"1739557827.915","-0.008",,,,,,
"1739557827.916",,"0.016",,,,,
"1739557827.918",,,"0.997",,,,
"1739557827.919",,,,"-11",,,
"1739557827.921",,,,,"-27",,
"1739557827.922",,,,,,"980",
"1739557827.929","-0.008",,,,,,
"1739557827.93",,"0.015",,,,,
"1739557827.932",,,"0.997",,,,
"1739557827.933",,,,"-14",,,
"1739557827.935",,,,,"-31",,
"1739557827.937",,,,,,"987",
"1739557827.944","-0.007",,,,,,
"1739557827.945",,"0.014",,,,,
"1739557827.946",,,"0.997",,,,
"1739557827.948",,,,"-10",,,
"1739557827.95",,,,,"-28",,
"1739557827.951",,,,,,"987",
"1739557827.957","-0.007",,,,,,
"1739557827.959",,"0.014",,,,,
"1739557827.96",,,"0.998",,,,
"1739557827.962",,,,"-15",,,
"1739557827.964",,,,,"-16",,
"1739557827.965",,,,,,"986",
"1739557827.972","-0.007",,,,,,
"1739557827.973",,"0.014",,,,,
"1739557827.975",,,"0.996",,,,
"1739557827.976",,,,"-20",,,
"1739557827.978",,,,,"-15",,
"1739557827.98",,,,,,"982",
"1739557827.986","-0.007",,,,,,
"1739557827.987",,"0.015",,,,,
"1739557827.989",,,"0.998",,,,
"1739557827.99",,,,"-16",,,
"1739557827.992",,,,,"-19",,
"1739557827.994",,,,,,"996",
"1739557828","-0.007",,,,,,
"1739557828.001",,"0.015",,,,,
"1739557828.003",,,"0.998",,,,
"1739557828.004",,,,"-16",,,
"1739557828.006",,,,,"-25",,
"1739557828.008",,,,,,"992",
"1739557828.014","-0.006",,,,,,
"1739557828.015",,"0.016",,,,,
"1739557828.017",,,"0.998",,,,
"1739557828.018",,,,"-6",,,
"1739557828.021",,,,,"-17",,
"1739557828.022",,,,,,"984",
"1739557828.028","-0.007",,,,,,
"1739557828.029",,"0.017",,,,,
"1739557828.031",,,"0.999",,,,
"1739557828.032",,,,"-15",,,
"1739557828.034",,,,,"-15",,
"1739557828.036",,,,,,"992",
"1739557828.043","-0.008",,,,,,
"1739557828.044",,"0.016",,,,,
"1739557828.046",,,"0.999",,,,
"1739557828.048",,,,"-11",,,
"1739557828.049",,,,,"-18",,
"1739557828.051",,,,,,"995",
"1739557828.057","-0.007",,,,,,
"1739557828.059",,"0.017",,,,,
"1739557828.061",,,"1",,,,
"1739557828.062",,,,"-10",,,
"1739557828.063",,,,,"-22",,
"1739557828.065",,,,,,"989",
"1739557828.071","-0.007",,,,,,
"1739557828.073",,"0.017",,,,,
"1739557828.074",,,"1.001",,,,
"1739557828.076",,,,"-13",,,
"1739557828.077",,,,,"-26",,
"1739557828.079",,,,,,"994",
"1739557828.086","-0.007",,,,,,
"1739557828.088",,"0.018",,,,,
"1739557828.089",,,"1",,,,
"1739557828.091",,,,"-11",,,
"1739557828.092",,,,,"-23",,
"1739557828.094",,,,,,"981",
"1739557828.1","-0.007",,,,,,
"1739557828.101",,"0.017",,,,,
"1739557828.103",,,"1",,,,
"1739557828.104",,,,"-12",,,
"1739557828.106",,,,,"-20",,
"1739557828.108",,,,,,"990",
"1739557828.115","-0.007",,,,,,
"1739557828.116",,"0.017",,,,,
"1739557828.118",,,"1.001",,,,
"1739557828.119",,,,"-22",,,
"1739557828.121",,,,,"-21",,
"1739557828.123",,,,,,"986",
"1739557828.129","-0.007",,,,,,
"1739557828.131",,"0.016",,,,,
"1739557828.133",,,"1",,,,
"1739557828.134",,,,"-13",,,
"1739557828.136",,,,,"-23",,
"1739557828.137",,,,,,"989",
"1739557828.144","-0.007",,,,,,
"1739557828.145",,"0.017",,,,,
"1739557828.147",,,"1",,,,
"1739557828.148",,,,"-14",,,
"1739557828.15",,,,,"-21",,
"1739557828.152",,,,,,"991",
"1739557828.158","-0.008",,,,,,
"1739557828.16",,"0.016",,,,,
"1739557828.161",,,"1.001",,,,
"1739557828.163",,,,"-15",,,
"1739557828.165",,,,,"-21",,
"1739557828.166",,,,,,"990",
"1739557828.173","-0.008",,,,,,
"1739557828.174",,"0.016",,,,,
"1739557828.176",,,"1",,,,
"1739557828.177",,,,"-14",,,
"1739557828.179",,,,,"-18",,
"1739557828.18",,,,,,"989",
"1739557828.187","-0.008",,,,,,
"1739557828.188",,"0.016",,,,,
"1739557828.19",,,"0.999",,,,
"1739557828.191",,,,"-16",,,
"1739557828.193",,,,,"-18",,
"1739557828.194",,,,,,"982",
"1739557828.202","-0.008",,,,,,
"1739557828.203",,"0.016",,,,,
"1739557828.204",,,"1",,,,
"1739557828.206",,,,"-10",,,
"1739557828.208",,,,,"-22",,
"1739557828.209",,,,,,"995",
"1739557828.215","-0.008",,,,,,
"1739557828.217",,"0.017",,,,,
"1739557828.218",,,"0.999",,,,
"1739557828.22",,,,"-8",,,
"1739557828.221",,,,,"-20",,
"1739557828.223",,,,,,"993",
"1739557828.23","-0.008",,,,,,
"1739557828.231",,"0.017",,,,,
"1739557828.233",,,"1",,,,
"1739557828.234",,,,"-14",,,
"1739557828.236",,,,,"-21",,
"1739557828.237",,,,,,"987",
"1739557828.244","-0.008",,,,,,
"1739557828.245",,"0.017",,,,,
"1739557828.247",,,"1",,,,
"1739557828.248",,,,"-12",,,
"1739557828.25",,,,,"-15",,
"1739557828.252",,,,,,"985",
"1739557828.258","-0.007",,,,,,
"1739557828.259",,"0.017",,,,,
"1739557828.261",,,"1",,,,
"1739557828.262",,,,"-11",,,
"1739557828.264",,,,,"-22",,
"1739557828.266",,,,,,"988",
"1739557828.273","-0.007",,,,,,
"1739557828.274",,"0.018",,,,,
"1739557828.276",,,"0.999",,,,
"1739557828.277",,,,"-13",,,
"1739557828.279",,,,,"-19",,
"1739557828.281",,,,,,"985",
"1739557828.287","-0.007",,,,,,
"1739557828.289",,"0.017",,,,,
"1739557828.29",,,"0.999",,,,
"1739557828.291",,,,"-12",,,
"1739557828.293",,,,,"-24",,
"1739557828.295",,,,,,"983",
"1739557828.302","-0.007",,,,,,
"1739557828.303",,"0.017",,,,,
"1739557828.304",,,"0.999",,,,
"1739557828.306",,,,"-21",,,
"1739557828.308",,,,,"-21",,
"1739557828.309",,,,,,"994",
"1739557828.316","-0.007",,,,,,
"1739557828.317",,"0.017",,,,,
"1739557828.319",,,"0.999",,,,
"1739557828.321",,,,"-11",,,
"1739557828.322",,,,,"-17",,
"1739557828.324",,,,,,"987",
"1739557828.33","-0.006",,,,,,
"1739557828.332",,"0.017",,,,,
"1739557828.333",,,"1",,,,
"1739557828.335",,,,"-11",,,
"1739557828.336",,,,,"-20",,
"1739557828.338",,,,,,"995",
"1739557828.344","-0.007",,,,,,
"1739557828.346",,"0.017",,,,,
"1739557828.347",,,"0.998",,,,
"1739557828.349",,,,"-12",,,
"1739557828.351",,,,,"-25",,
"1739557828.352",,,,,,"979",
"1739557828.358","-0.007",,,,,,
"1739557828.36",,"0.017",,,,,
"1739557828.361",,,"0.998",,,,
"1739557828.363",,,,"-16",,,
"1739557828.365",,,,,"-17",,
"1739557828.366",,,,,,"988",
"1739557828.372","-0.008",,,,,,
"1739557828.374",,"0.017",,,,,
"1739557828.375",,,"0.999",,,,
"1739557828.377",,,,"-15",,,
"1739557828.379",,,,,"-23",,
"1739557828.38",,,,,,"995",
"1739557828.387","-0.008",,,,,,
"1739557828.389",,"0.016",,,,,
"1739557828.39",,,"0.999",,,,
"1739557828.392",,,,"-15",,,
"1739557828.393",,,,,"-21",,
"1739557828.395",,,,,,"990",
"1739557828.401","-0.008",,,,,,
"1739557828.402",,"0.016",,,,,
"1739557828.404",,,"0.999",,,,
"1739557828.406",,,,"-17",,,
"1739557828.407",,,,,"-22",,
"1739557828.409",,,,,,"986",
"1739557828.416","-0.009",,,,,,
"1739557828.417",,"0.016",,,,,
"1739557828.419",,,"0.999",,,,
"1739557828.42",,,,"-18",,,
"1739557828.422",,,,,"-22",,
"1739557828.424",,,,,,"989",
"1739557828.43","-0.009",,,,,,
"1739557828.432",,"0.016",,,,,
"1739557828.433",,,"0.999",,,,
"1739557828.435",,,,"-15",,,
"1739557828.437",,,,,"-29",,
"1739557828.438",,,,,,"983",
"1739557828.444","-0.008",,,,,,
"1739557828.446",,"0.016",,,,,
"1739557828.447",,,"0.999",,,,
"1739557828.449",,,,"-13",,,
"1739557828.451",,,,,"-20",,
"1739557828.452",,,,,,"986",
"1739557828.459","-0.009",,,,,,
"1739557828.461",,"0.015",,,,,
"1739557828.462",,,"0.999",,,,
"1739557828.464",,,,"-14",,,
"1739557828.466",,,,,"-20",,
"1739557828.467",,,,,,"986",
"1739557828.474","-0.009",,,,,,
"1739557828.475",,"0.015",,,,,
"1739557828.477",,,"0.998",,,,
"1739557828.478",,,,"-9",,,
"1739557828.48",,,,,"-21",,
"1739557828.481",,,,,,"986",
"1739557828.488","-0.008",,,,,,
"1739557828.49",,"0.016",,,,,
"1739557828.491",,,"0.999",,,,
"1739557828.493",,,,"-10",,,
"1739557828.494",,,,,"-22",,
"1739557828.496",,,,,,"996",
"1739557828.504","-0.008",,,,,,
"1739557828.505",,"0.015",,,,,
"1739557828.507",,,"1",,,,
"1739557828.508",,,,"-12",,,
"1739557828.51",,,,,"-26",,
"1739557828.511",,,,,,"995",
"1739557828.519","-0.007",,,,,,
"1739557828.52",,"0.016",,,,,
"1739557828.521",,,"0.999",,,,
"1739557828.522",,,,"-9",,,
"1739557828.524",,,,,"-13",,
"1739557828.525",,,,,,"988",
"1739557828.532","-0.007",,,,,,
"1739557828.533",,"0.016",,,,,
"1739557828.535",,,"0.999",,,,
"1739557828.536",,,,"-11",,,
"1739557828.538",,,,,"-21",,
"1739557828.54",,,,,,"984",
"1739557828.546","-0.007",,,,,,
"1739557828.547",,"0.016",,,,,
"1739557828.549",,,"0.999",,,,
"1739557828.55",,,,"-18",,,
"1739557828.553",,,,,"-18",,
"1739557828.554",,,,,,"986",
"1739557828.56","-0.007",,,,,,
"1739557828.561",,"0.016",,,,,
"1739557828.563",,,"0.998",,,,
"1739557828.564",,,,"-15",,,
"1739557828.566",,,,,"-20",,
"1739557828.568",,,,,,"985",
"1739557828.574","-0.007",,,,,,
"1739557828.576",,"0.017",,,,,
"1739557828.577",,,"1",,,,
"1739557828.579",,,,"-14",,,
"1739557828.58",,,,,"-23",,
"1739557828.582",,,,,,"998",
"1739557828.588","-0.006",,,,,,
"1739557828.59",,"0.017",,,,,
"1739557828.592",,,"1",,,,
"1739557828.593",,,,"-11",,,
"1739557828.594",,,,,"-23",,
"1739557828.596",,,,,,"989",
"1739557828.603","-0.006",,,,,,
"1739557828.605",,"0.017",,,,,
"1739557828.606",,,"1",,,,
"1739557828.608",,,,"-13",,,
"1739557828.609",,,,,"-20",,
"1739557828.611",,,,,,"986",
"1739557828.617","-0.006",,,,,,
"1739557828.619",,"0.017",,,,,
"1739557828.62",,,"1",,,,
"1739557828.622",,,,"-10",,,
"1739557828.623",,,,,"-19",,
"1739557828.625",,,,,,"988",
"1739557828.631","-0.007",,,,,,
"1739557828.633",,"0.017",,,,,
"1739557828.634",,,"1",,,,
"1739557828.636",,,,"-12",,,
"1739557828.637",,,,,"-19",,
"1739557828.639",,,,,,"989",
"1739557828.646","-0.006",,,,,,
"1739557828.647",,"0.018",,,,,
"1739557828.648",,,"0.999",,,,
"1739557828.65",,,,"-7",,,
"1739557828.652",,,,,"-19",,
"1739557828.653",,,,,,"984",
"1739557828.659","-0.006",,,,,,
"1739557828.661",,"0.016",,,,,
"1739557828.662",,,"0.999",,,,
"1739557828.664",,,,"-10",,,
"1739557828.666",,,,,"-27",,
"1739557828.667",,,,,,"995",
"1739557828.674","-0.007",,,,,,
"1739557828.675",,"0.017",,,,,
"1739557828.677",,,"1",,,,
"1739557828.679",,,,"-18",,,
"1739557828.68",,,,,"-18",,
"1739557828.682",,,,,,"989",
"1739557828.688","-0.006",,,,,,
"1739557828.69",,"0.017",,,,,
"1739557828.691",,,"1",,,,
"1739557828.693",,,,"-10",,,
"1739557828.695",,,,,"-17",,
"1739557828.696",,,,,,"987",
"1739557828.703","-0.006",,,,,,
"1739557828.704",,"0.017",,,,,
"1739557828.706",,,"1",,,,
"1739557828.707",,,,"-10",,,
"1739557828.709",,,,,"-19",,
"1739557828.711",,,,,,"986",
"1739557828.718","-0.006",,,,,,
"1739557828.719",,"0.017",,,,,
"1739557828.72",,,"0.999",,,,
"1739557828.722",,,,"-16",,,
"1739557828.724",,,,,"-20",,
"1739557828.725",,,,,,"992",
"1739557828.732","-0.006",,,,,,
"1739557828.733",,"0.017",,,,,
"1739557828.734",,,"0.999",,,,
"1739557828.736",,,,"-10",,,
"1739557828.738",,,,,"-22",,
"1739557828.739",,,,,,"989",
"1739557828.746","-0.005",,,,,,
"1739557828.747",,"0.017",,,,,
"1739557828.749",,,"0.999",,,,
"1739557828.75",,,,"-10",,,
"1739557828.752",,,,,"-20",,
"1739557828.754",,,,,,"982",
"1739557828.761","-0.006",,,,,,
"1739557828.762",,"0.017",,,,,
"1739557828.764",,,"0.999",,,,
"1739557828.765",,,,"-15",,,
"1739557828.767",,,,,"-25",,
"1739557828.768",,,,,,"988",
"1739557828.775","-0.006",,,,,,
"1739557828.776",,"0.017",,,,,
"1739557828.778",,,"0.999",,,,
"1739557828.78",,,,"-13",,,
"1739557828.781",,,,,"-16",,
"1739557828.783",,,,,,"991",
"1739557828.789","-0.007",,,,,,
"1739557828.791",,"0.016",,,,,
"1739557828.792",,,"1.001",,,,
"1739557828.794",,,,"-15",,,
"1739557828.795",,,,,"-24",,
"1739557828.797",,,,,,"998",
"1739557828.804","-0.007",,,,,,
"1739557828.805",,"0.017",,,,,
"1739557828.807",,,"1",,,,
"1739557828.808",,,,"-15",,,
"1739557828.81",,,,,"-19",,
"1739557828.812",,,,,,"993",
"1739557828.818","-0.007",,,,,,
"1739557828.82",,"0.017",,,,,
"1739557828.821",,,"1.001",,,,
"1739557828.823",,,,"-10",,,
"1739557828.824",,,,,"-23",,
"1739557828.826",,,,,,"991",
"1739557828.833","-0.007",,,,,,
"1739557828.834",,"0.016",,,,,
"1739557828.836",,,"1.002",,,,
"1739557828.838",,,,"-13",,,
"1739557828.839",,,,,"-26",,
"1739557828.841",,,,,,"997",
"1739557828.847","-0.007",,,,,,
"1739557828.848",,"0.016",,,,,
"1739557828.85",,,"1.002",,,,
"1739557828.852",,,,"-9",,,
"1739557828.853",,,,,"-17",,
"1739557828.855",,,,,,"988",
"1739557828.861","-0.006",,,,,,
"1739557828.863",,"0.016",,,,,
"1739557828.864",,,"1.001",,,,
"1739557828.866",,,,"-13",,,
"1739557828.867",,,,,"-20",,
"1739557828.869",,,,,,"984",
"1739557828.875","-0.007",,,,,,
"1739557828.877",,"0.016",,,,,
"1739557828.878",,,"1.001",,,,
"1739557828.88",,,,"-14",,,
"1739557828.882",,,,,"-19",,
"1739557828.883",,,,,,"991",
"1739557828.889","-0.007",,,,,,
"1739557828.891",,"0.016",,,,,
"1739557828.892",,,"1.001",,,,
"1739557828.894",,,,"-14",,,
"1739557828.895",,,,,"-22",,
"1739557828.897",,,,,,"984",
"1739557828.903","-0.007",,,,,,
"1739557828.905",,"0.016",,,,,
"1739557828.906",,,"1.002",,,,
"1739557828.908",,,,"-12",,,
"1739557828.909",,,,,"-22",,
"1739557828.911",,,,,,"992",
"1739557828.918","-0.007",,,,,,
"1739557828.919",,"0.017",,,,,
"1739557828.92",,,"1.002",,,,
"1739557828.922",,,,"-13",,,
"1739557828.923",,,,,"-13",,
"1739557828.925",,,,,,"995",
"1739557828.932","-0.007",,,,,,
"1739557828.933",,"0.016",,,,,
"1739557828.934",,,"1.001",,,,
"1739557828.936",,,,"-16",,,
"1739557828.938",,,,,"-27",,
"1739557828.939",,,,,,"991",
"1739557828.946","-0.006",,,,,,
"1739557828.948",,"0.016",,,,,
"1739557828.949",,,"1.001",,,,
"1739557828.951",,,,"-8",,,
"1739557828.952",,,,,"-22",,
"1739557828.954",,,,,,"986",
"1739557828.961","-0.007",,,,,,
"1739557828.962",,"0.016",,,,,
"1739557828.964",,,"1.001",,,,
"1739557828.965",,,,"-15",,,
"1739557828.967",,,,,"-22",,
"1739557828.968",,,,,,"990",
"1739557828.975","-0.007",,,,,,
"1739557828.977",,"0.017",,,,,
"1739557828.978",,,"1",,,,
"1739557828.98",,,,"-11",,,
"1739557828.981",,,,,"-22",,
"1739557828.983",,,,,,"990",
"1739557828.99","-0.006",,,,,,
"1739557828.991",,"0.016",,,,,
"1739557828.992",,,"1",,,,
"1739557828.994",,,,"-5",,,
"1739557828.996",,,,,"-20",,
"1739557828.997",,,,,,"990",
"1739557829.003","-0.006",,,,,,
"1739557829.005",,"0.016",,,,,
"1739557829.006",,,"1",,,,
"1739557829.008",,,,"-15",,,
"1739557829.009",,,,,"-22",,
"1739557829.011",,,,,,"982",
"1739557829.018","-0.006",,,,,,
"1739557829.019",,"0.016",,,,,
"1739557829.021",,,"1",,,,
"1739557829.022",,,,"-14",,,
"1739557829.024",,,,,"-19",,
"1739557829.026",,,,,,"991",
"1739557829.032","-0.006",,,,,,
"1739557829.033",,"0.016",,,,,
"1739557829.035",,,"1",,,,
"1739557829.036",,,,"-14",,,
"1739557829.038",,,,,"-25",,
"1739557829.04",,,,,,"986",
"1739557829.048","-0.007","0.016",,,,,
"1739557829.05",,,"1",,,,
"1739557829.051",,,,"-16",,,
"1739557829.053",,,,,"-22",,
"1739557829.055",,,,,,"986",
"1739557829.061","-0.007",,,,,,
"1739557829.063",,"0.015",,,,,
"1739557829.064",,,"0.998",,,,
"1739557829.066",,,,"-12",,,
"1739557829.067",,,,,"-21",,
"1739557829.069",,,,,,"979",
"1739557829.075","-0.006",,,,,,
"1739557829.077",,"0.016",,,,,
"1739557829.078",,,"0.997",,,,
"1739557829.08",,,,"-12",,,
"1739557829.082",,,,,"-19",,
"1739557829.083",,,,,,"986",
"1739557829.09","-0.006",,,,,,
"1739557829.091",,"0.015",,,,,
"1739557829.093",,,"0.997",,,,
"1739557829.094",,,,"-7",,,
"1739557829.096",,,,,"-27",,
"1739557829.098",,,,,,"985",
"1739557829.104","-0.006",,,,,,
"1739557829.105",,"0.015",,,,,
"1739557829.107",,,"0.997",,,,
"1739557829.109",,,,"-12",,,
"1739557829.11",,,,,"-22",,
"1739557829.112",,,,,,"984",
"1739557829.12","-0.006","0.015",,,,,
"1739557829.122",,,"0.997",,,,
"1739557829.123",,,,"-10",,,
"1739557829.125",,,,,"-21",,
"1739557829.127",,,,,,"989",
"1739557829.134","-0.007",,,,,,
"1739557829.135",,"0.015",,,,,
"1739557829.136",,,"0.996",,,,
"1739557829.138",,,,"-16",,,
"1739557829.139",,,,,"-25",,
"1739557829.141",,,,,,"985",
"1739557829.147","-0.007",,,,,,
"1739557829.149",,"0.015",,,,,
"1739557829.15",,,"0.996",,,,
"1739557829.152",,,,"-13",,,
"1739557829.153",,,,,"-25",,
"1739557829.155",,,,,,"983",
"1739557829.162","-0.007",,,,,,
"1739557829.164",,"0.015",,,,,
"1739557829.165",,,"0.996",,,,
"1739557829.167",,,,"-14",,,
"1739557829.168",,,,,"-20",,
"1739557829.17",,,,,,"984",
"1739557829.176","-0.007",,,,,,
"1739557829.177",,"0.015",,,,,
"1739557829.179",,,"0.996",,,,
"1739557829.181",,,,"-12",,,
"1739557829.182",,,,,"-20",,
"1739557829.184",,,,,,"994",
"1739557829.191","-0.006",,,,,,
"1739557829.192",,"0.015",,,,,
"1739557829.194",,,"0.997",,,,
"1739557829.195",,,,"-10",,,
"1739557829.197",,,,,"-24",,
"1739557829.199",,,,,,"996",
"1739557829.205","-0.007",,,,,,
"1739557829.207",,"0.015",,,,,
"1739557829.208",,,"0.998",,,,
"1739557829.21",,,,"-19",,,
"1739557829.212",,,,,"-21",,
"1739557829.213",,,,,,"990",
"1739557829.219","-0.007",,,,,,
"1739557829.221",,"0.015",,,,,
"1739557829.222",,,"0.998",,,,
"1739557829.224",,,,"-17",,,
"1739557829.225",,,,,"-18",,
"1739557829.227",,,,,,"986",
"1739557829.234","-0.007",,,,,,
"1739557829.236",,"0.016",,,,,
"1739557829.237",,,"1",,,,
"1739557829.239",,,,"-10",,,
"1739557829.241",,,,,"-17",,
"1739557829.242",,,,,,"996",
"1739557829.249","-0.008",,,,,,
"1739557829.25",,"0.017",,,,,
"1739557829.252",,,"0.999",,,,
"1739557829.253",,,,"-17",,,
"1739557829.255",,,,,"-16",,
"1739557829.256",,,,,,"982",
"1739557829.263","-0.008",,,,,,
"1739557829.265",,"0.017",,,,,
"1739557829.266",,,"0.999",,,,
"1739557829.268",,,,"-8",,,
"1739557829.269",,,,,"-16",,
"1739557829.271",,,,,,"990",
"1739557829.278","-0.007",,,,,,
"1739557829.279",,"0.018",,,,,
"1739557829.281",,,"1",,,,
"1739557829.282",,,,"-13",,,
"1739557829.284",,,,,"-19",,
"1739557829.286",,,,,,"990",
"1739557829.292","-0.007",,,,,,
"1739557829.293",,"0.018",,,,,
"1739557829.295",,,"1",,,,
"1739557829.296",,,,"-11",,,
"1739557829.298",,,,,"-17",,
"1739557829.3",,,,,,"984",
"1739557829.307","-0.007",,,,,,
"1739557829.308",,"0.018",,,,,
"1739557829.309",,,"1.001",,,,
"1739557829.312",,,,"-12","-21",,
"1739557829.314",,,,,,"989",
"1739557829.321","-0.008",,,,,,
"1739557829.322",,"0.018",,,,,
"1739557829.324",,,"1",,,,
"1739557829.325",,,,"-18",,,
"1739557829.327",,,,,"-28",,
"1739557829.329",,,,,,"986",
"1739557829.335","-0.008",,,,,,
"1739557829.336",,"0.018",,,,,
"1739557829.338",,,"0.999",,,,
"1739557829.339",,,,"-16",,,
"1739557829.341",,,,,"-18",,
"1739557829.342",,,,,,"987",
"1739557829.35","-0.008",,,,,,
"1739557829.352",,"0.018","0.999",,,,
"1739557829.354",,,,"-12",,,
"1739557829.356",,,,,"-19",,
"1739557829.357",,,,,,"991",
"1739557829.364","-0.007",,,,,,
"1739557829.365",,"0.018",,,,,
"1739557829.367",,,"0.999",,,,
"1739557829.369",,,,"-11",,,
"1739557829.37",,,,,"-19",,
"1739557829.372",,,,,,"985",
"1739557829.378","-0.007",,,,,,
"1739557829.379",,"0.018",,,,,
"1739557829.381",,,"0.999",,,,
"1739557829.383",,,,"-11",,,
"1739557829.384",,,,,"-21",,
"1739557829.386",,,,,,"993",
"1739557829.393","-0.007",,,,,,
"1739557829.395",,"0.018",,,,,
"1739557829.396",,,"0.999",,,,
"1739557829.398",,,,"-13",,,
"1739557829.399",,,,,"-18",,
"1739557829.401",,,,,,"984",
"1739557829.407","-0.007",,,,,,
"1739557829.409",,"0.017",,,,,
"1739557829.41",,,"0.999",,,,
"1739557829.412",,,,"-15",,,
"1739557829.413",,,,,"-27",,
"1739557829.415",,,,,,"992",
"1739557829.421","-0.007",,,,,,
"1739557829.422",,"0.016",,,,,
"1739557829.424",,,"0.999",,,,
"1739557829.426",,,,"-13",,,
"1739557829.427",,,,,"-22",,
"1739557829.429",,,,,,"991",
"1739557829.435","-0.007",,,,,,
"1739557829.437",,"0.015",,,,,
"1739557829.438",,,"0.999",,,,
"1739557829.44",,,,"-11",,,
"1739557829.441",,,,,"-25",,
"1739557829.443",,,,,,"986",
"1739557829.449","-0.007",,,,,,
"1739557829.451",,"0.016",,,,,
"1739557829.452",,,"0.999",,,,
"1739557829.454",,,,"-11",,,
"1739557829.456",,,,,"-18",,
"1739557829.457",,,,,,"987",
"1739557829.464","-0.007",,,,,,
"1739557829.466",,"0.016",,,,,
"1739557829.467",,,"1",,,,
"1739557829.469",,,,"-18",,,
"1739557829.471",,,,,"-21",,
"1739557829.472",,,,,,"991",
"1739557829.479","-0.007",,,,,,
"1739557829.48",,"0.016",,,,,
"1739557829.481",,,"0.999",,,,
"1739557829.483",,,,"-14",,,
"1739557829.485",,,,,"-19",,
"1739557829.486",,,,,,"981",
"1739557829.493","-0.007",,,,,,
"1739557829.494",,"0.016",,,,,
"1739557829.496",,,"0.999",,,,
"1739557829.497",,,,"-15",,,
"1739557829.499",,,,,"-19",,
"1739557829.501",,,,,,"991",
"1739557829.508","-0.008",,,,,,
"1739557829.509",,"0.016",,,,,
"1739557829.511",,,"0.999",,,,
"1739557829.512",,,,"-14",,,
"1739557829.514",,,,,"-20",,
"1739557829.516",,,,,,"989",
"1739557829.522","-0.008",,,,,,
"1739557829.523",,"0.016",,,,,
"1739557829.525",,,"0.999",,,,
"1739557829.526",,,,"-12",,,
"1739557829.528",,,,,"-21",,
"1739557829.529",,,,,,"992",
"1739557829.536","-0.008",,,,,,
"1739557829.537",,"0.016",,,,,
"1739557829.539",,,"1",,,,
"1739557829.54",,,,"-17",,,
"1739557829.542",,,,,"-23",,
"1739557829.544",,,,,,"987",
"1739557829.55","-0.008",,,,,,
"1739557829.551",,"0.016",,,,,
"1739557829.553",,,"0.999",,,,
"1739557829.554",,,,"-16",,,
"1739557829.556",,,,,"-20",,
"1739557829.558",,,,,,"987",
"1739557829.564","-0.008",,,,,,
"1739557829.565",,"0.016",,,,,
"1739557829.567",,,"0.999",,,,
"1739557829.568",,,,"-15",,,
"1739557829.57",,,,,"-22",,
"1739557829.572",,,,,,"993",
"1739557829.579","-0.009",,,,,,
"1739557829.58",,"0.017",,,,,
"1739557829.582",,,"1",,,,
"1739557829.583",,,,"-16",,,
"1739557829.585",,,,,"-22",,
"1739557829.587",,,,,,"991",
"1739557829.593","-0.009",,,,,,
"1739557829.594",,"0.017",,,,,
"1739557829.596",,,"1",,,,
"1739557829.597",,,,"-10",,,
"1739557829.599",,,,,"-17",,
"1739557829.6",,,,,,"991",
"1739557829.608","-0.008",,,,,,
"1739557829.609",,"0.016",,,,,
"1739557829.61",,,"1",,,,
"1739557829.612",,,,"-10",,,
"1739557829.614",,,,,"-25",,
"1739557829.615",,,,,,"985",
"1739557829.622","-0.008",,,,,,
"1739557829.623",,"0.016",,,,,
"1739557829.625",,,"1.001",,,,
"1739557829.627",,,,"-12",,,
"1739557829.628",,,,,"-25",,
"1739557829.63",,,,,,"991",
"1739557829.637","-0.008",,,,,,
"1739557829.638",,"0.016",,,,,
"1739557829.639",,,"1",,,,
"1739557829.641",,,,"-12",,,
"1739557829.643",,,,,"-20",,
"1739557829.644",,,,,,"981",
"1739557829.65","-0.007",,,,,,
"1739557829.652",,"0.015",,,,,
"1739557829.653",,,"1",,,,
"1739557829.655",,,,"-13",,,
"1739557829.656",,,,,"-24",,
"1739557829.658",,,,,,"989",
"1739557829.664","-0.007",,,,,,
"1739557829.666",,"0.016",,,,,
"1739557829.667",,,"0.999",,,,
"1739557829.669",,,,"-9",,,
"1739557829.67",,,,,"-19",,
"1739557829.672",,,,,,"991",
"1739557829.679","-0.007",,,,,,
"1739557829.68",,"0.015",,,,,
"1739557829.681",,,"0.999",,,,
"1739557829.683",,,,"-15",,,
"1739557829.685",,,,,"-24",,
"1739557829.686",,,,,,"984",
"1739557829.693","-0.006",,,,,,
"1739557829.695",,"0.015",,,,,
"1739557829.696",,,"0.999",,,,
"1739557829.698",,,,"-11",,,
"1739557829.7",,,,,"-21",,
"1739557829.701",,,,,,"989",
"1739557829.707","-0.006",,,,,,
"1739557829.709",,"0.016",,,,,
"1739557829.71",,,"0.999",,,,
"1739557829.712",,,,"-14",,,
"1739557829.714",,,,,"-16",,
"1739557829.715",,,,,,"989",
"1739557829.722","-0.006",,,,,,
"1739557829.723",,"0.015",,,,,
"1739557829.725",,,"0.998",,,,
"1739557829.726",,,,"-11",,,
"1739557829.728",,,,,"-30",,
"1739557829.73",,,,,,"986",
"1739557829.736","-0.007",,,,,,
"1739557829.738",,"0.015",,,,,
"1739557829.739",,,"0.999",,,,
"1739557829.741",,,,"-17",,,
"1739557829.743",,,,,"-17",,
"1739557829.744",,,,,,"992",
"1739557829.75","-0.007",,,,,,
"1739557829.751",,"0.015",,,,,
"1739557829.753",,,"0.999",,,,
"1739557829.755",,,,"-19",,,
"1739557829.756",,,,,"-23",,
"1739557829.758",,,,,,"991",
"1739557829.765","-0.008",,,,,,
"1739557829.766",,"0.016",,,,,
"1739557829.767",,,"0.999",,,,
"1739557829.769",,,,"-15",,,
"1739557829.771",,,,,"-20",,
"1739557829.772",,,,,,"993",
"1739557829.779","-0.007",,,,,,
"1739557829.78",,"0.016",,,,,
"1739557829.782",,,"1",,,,
"1739557829.783",,,,"-5",,,
"1739557829.785",,,,,"-20",,
"1739557829.787",,,,,,"991",
"1739557829.793","-0.007",,,,,,
"1739557829.794",,"0.016",,,,,
"1739557829.796",,,"1",,,,
"1739557829.797",,,,"-17",,,
"1739557829.799",,,,,"-22",,
"1739557829.801",,,,,,"989",
"1739557829.808","-0.008",,,,,,
"1739557829.809",,"0.016",,,,,
"1739557829.811",,,"1",,,,
"1739557829.812",,,,"-13",,,
"1739557829.814",,,,,"-23",,
"1739557829.816",,,,,,"992",
"1739557829.822","-0.007",,,,,,
"1739557829.823",,"0.016",,,,,
"1739557829.825",,,"1",,,,
"1739557829.826",,,,"-11",,,
"1739557829.828",,,,,"-18",,
"1739557829.83",,,,,,"984",
"1739557829.836","-0.008",,,,,,
"1739557829.837",,"0.016",,,,,
"1739557829.839",,,"1",,,,
"1739557829.841",,,,"-14",,,
"1739557829.842",,,,,"-19",,
"1739557829.844",,,,,,"987",
"1739557829.851","-0.008","0.016",,,,,
"1739557829.853",,,"1",,,,
"1739557829.854",,,,"-12",,,
"1739557829.856",,,,,"-20",,
"1739557829.858",,,,,,"991",
"1739557829.864","-0.007",,,,,,
"1739557829.866",,"0.016",,,,,
"1739557829.867",,,"1.001",,,,
"1739557829.869",,,,"-9",,,
"1739557829.87",,,,,"-27",,
"1739557829.872",,,,,,"991",
"1739557829.879","-0.007",,,,,,
"1739557829.881",,"0.016",,,,,
"1739557829.882",,,"1.001",,,,
"1739557829.884",,,,"-10",,,
"1739557829.885",,,,,"-24",,
"1739557829.887",,,,,,"994",
"1739557829.893","-0.006",,,,,,
"1739557829.895",,"0.016",,,,,
"1739557829.896",,,"1.001",,,,
"1739557829.898",,,,"-17",,,
"1739557829.899",,,,,"-20",,
"1739557829.901",,,,,,"989",
"1739557829.908","-0.006",,,,,,
"1739557829.91",,"0.016",,,,,
"1739557829.911",,,"1.001",,,,
"1739557829.913",,,,"-10",,,
"1739557829.914",,,,,"-22",,
"1739557829.916",,,,,,"992",
"1739557829.922","-0.007",,,,,,
"1739557829.924",,"0.016",,,,,
"1739557829.925",,,"1.001",,,,
"1739557829.927",,,,"-17",,,
"1739557829.928",,,,,"-22",,
"1739557829.93",,,,,,"997",
"1739557829.937","-0.008",,,,,,
"1739557829.938",,"0.015",,,,,
"1739557829.94",,,"1.002",,,,
"1739557829.941",,,,"-22",,,
"1739557829.943",,,,,"-24",,
"1739557829.944",,,,,,"993",
"1739557829.951","-0.008",,,,,,
"1739557829.953",,"0.016",,,,,
"1739557829.954",,,"1.001",,,,
"1739557829.956",,,,"-13",,,
"1739557829.957",,,,,"-21",,
"1739557829.959",,,,,,"986",
"1739557829.965","-0.007",,,,,,
"1739557829.967",,"0.015",,,,,
"1739557829.968",,,"1.002",,,,
"1739557829.97",,,,"-4",,,
"1739557829.971",,,,,"-21",,
"1739557829.973",,,,,,"993",
"1739557829.98","-0.007",,,,,,
"1739557829.981",,"0.015",,,,,
"1739557829.983",,,"1.003",,,,
"1739557829.984",,,,"-17",,,
"1739557829.986",,,,,"-22",,
"1739557829.988",,,,,,"991",
"1739557829.995","-0.007",,,,,,
"1739557829.996",,"0.014",,,,,
"1739557829.997",,,"1.002",,,,
"1739557829.999",,,,"-10",,,
"1739557830.001",,,,,"-25",,
"1739557830.002",,,,,,"988",
"1739557830.009","-0.008",,,,,,
"1739557830.01",,"0.015",,,,,
"1739557830.012",,,"1.002",,,,
"1739557830.013",,,,"-14",,,
"1739557830.015",,,,,"-20",,
"1739557830.016",,,,,,"992",
"1739557830.023","-0.0011",,,,,,
"1739557830.025",,"0.014",,,,,
"1739557830.026",,,"1.002",,,,
"1739557830.028",,,,"-41",,,
"1739557830.03",,,,,"-33",,
"1739557830.031",,,,,,"994",
"1739557830.038","-0.0014",,,,,,
"1739557830.039",,"0.015",,,,,
"1739557830.041",,,"1.002",,,,
"1739557830.042",,,,"-53",,,
"1739557830.044",,,,,"-15",,
"1739557830.046",,,,,,"983",
"1739557830.052","-0.0017",,,,,,
"1739557830.053",,"0.015",,,,,
"1739557830.055",,,"1.001",,,,
"1739557830.056",,,,"-41",,,
"1739557830.058",,,,,"-17",,
"1739557830.06",,,,,,"981",
"1739557830.066","0.009",,,,,,
"1739557830.067",,"0.016",,,,,
"1739557830.069",,,"1",,,,
"1739557830.07",,,,"253",,,
"1739557830.072",,,,,"-17",,
"1739557830.074",,,,,,"987",
"1739557830.08","0.013",,,,,,
"1739557830.081",,"0.016",,,,,
"1739557830.083",,,"1",,,,
"1739557830.084",,,,"23",,,
"1739557830.086",,,,,"-24",,
"1739557830.088",,,,,,"993",
"1739557830.094","0.016",,,,,,
"1739557830.096",,"0.015",,,,,
"1739557830.097",,,"1",,,,
"1739557830.099",,,,"14",,,
"1739557830.101",,,,,"-24",,
"1739557830.102",,,,,,"987",
"1739557830.11","0.015",,,,,,
"1739557830.111",,"0.015",,,,,
"1739557830.112",,,"0.999",,,,
"1739557830.113",,,,"-11",,,
"1739557830.115",,,,,"-22",,
"1739557830.117",,,,,,"981",
"1739557830.123","0.011",,,,,,
"1739557830.124",,"0.016",,,,,
"1739557830.125",,,"1.003",,,,
"1739557830.127",,,,"-55",,,
"1739557830.129",,,,,"-12",,
"1739557830.13",,,,,,"1037",
"1739557830.139","0.017","0.017",,,,,
"1739557830.141",,,"1.005",,,,
"1739557830.142",,,,"47",,,
"1739557830.145",,,,,"-15",,
"1739557830.146",,,,,,"1005",
"1739557830.152","0.023",,,,,,
"1739557830.154",,"0.016",,,,,
"1739557830.155",,,"1.001",,,,
"1739557830.157",,,,"46",,,
"1739557830.158",,,,,"-31",,
"1739557830.16",,,,,,"957",
"1739557830.167","0.029","0.017",,,,,
"1739557830.169",,,"1.001",,,,
"1739557830.17",,,,"18",,,
"1739557830.172",,,,,"-26",,
"1739557830.174",,,,,,"991",
"1739557830.18","0.034",,,,,,
"1739557830.182",,"0.017",,,,,
"1739557830.183",,,"1.002",,,,
"1739557830.185",,,,"0",,,
"1739557830.186",,,,,"-19",,
"1739557830.188",,,,,,"994",
"1739557830.194","0.038",,,,,,
"1739557830.196",,"0.016",,,,,
"1739557830.197",,,"1.006",,,,
"1739557830.199",,,,"-2",,,
"1739557830.2",,,,,"-23",,
"1739557830.202",,,,,,"1022",
"1739557830.209","0.01",,,,,,
"1739557830.21",,"0.016",,,,,
"1739557830.211",,,"1.006",,,,
"1739557830.213",,,,"-33",,,
"1739557830.215",,,,,"-19",,
"1739557830.216",,,,,,"983",
"1739557830.222","0.005",,,,,,
"1739557830.224",,"0.017",,,,,
"1739557830.225",,,"1.006",,,,
"1739557830.227",,,,"-24",,,
"1739557830.229",,,,,"-11",,
"1739557830.23",,,,,,"997",
"1739557830.237","0.005",,,,,,
"1739557830.238",,"0.044",,,,,
"1739557830.239",,,"1.007",,,,
"1739557830.241",,,,"18",,,
"1739557830.243",,,,,"248",,
"1739557830.244",,,,,,"999",
"1739557830.251","0.006",,,,,,
"1739557830.253",,"0.044",,,,,
"1739557830.254",,,"1.013",,,,
"1739557830.256",,,,"0",,,
"1739557830.257",,,,,"-20",,
"1739557830.259",,,,,,"1033",
"1739557830.266","0.011",,,,,,
"1739557830.267",,"0.041",,,,,
"1739557830.268",,,"1.014",,,,
"1739557830.27",,,,"-9",,,
"1739557830.272",,,,,"-44",,
"1739557830.273",,,,,,"1049",
"1739557830.28","0.006",,,,,,
"1739557830.281",,"0.037",,,,,
"1739557830.283",,,"1.021",,,,
"1739557830.284",,,,"-6",,,
"1739557830.286",,,,,"-55",,
"1739557830.287",,,,,,"1076",
"1739557830.295","0.026",,,,,,
"1739557830.296",,"0.035",,,,,
"1739557830.297",,,"1.032",,,,
"1739557830.299",,,,"252",,,
"1739557830.301",,,,,"-49",,
"1739557830.303",,,,,,"1067",
"1739557830.308","0.048",,,,,,
"1739557830.311",,"0.034","1.05",,,,
"1739557830.313",,,,"238",,,
"1739557830.315",,,,,"-43",,
"1739557830.316",,,,,,"1175",
"1739557830.323","0.05",,,,,,
"1739557830.325",,"0.049",,,,,
"1739557830.326",,,"1.035",,,,
"1739557830.328",,,,"14",,,
"1739557830.329",,,,,"133",,
"1739557830.331",,,,,,"840",
"1739557830.337","0.054",,,,,,
"1739557830.338",,"0.063",,,,,
"1739557830.34",,,"1.01",,,,
"1739557830.341",,,,"42",,,
"1739557830.343",,,,,"114",,
"1739557830.345",,,,,,"772",
"1739557830.351","0.033",,,,,,
"1739557830.353",,"0.088",,,,,
"1739557830.354",,,"1.003",,,,
"1739557830.356",,,,"-246",,,
"1739557830.357",,,,,"235",,
"1739557830.359",,,,,,"915",
"1739557830.366","0.042",,,,,,
"1739557830.367",,"0.112",,,,,
"1739557830.369",,,"0.99",,,,
"1739557830.37",,,,"70",,,
"1739557830.372",,,,,"226",,
"1739557830.374",,,,,,"869",
"1739557830.38","0.044",,,,,,
"1739557830.381",,"0.092",,,,,
"1739557830.383",,,"0.981",,,,
"1739557830.384",,,,"39",,,
"1739557830.386",,,,,"48",,
"1739557830.388",,,,,,"905",
"1739557830.394","0.05",,,,,,
"1739557830.396",,"0.094",,,,,
"1739557830.397",,,"0.972",,,,
"1739557830.399",,,,"62",,,
"1739557830.4",,,,,"-1",,
"1739557830.402",,,,,,"947",
"1739557830.408","0.058",,,,,,
"1739557830.409",,"0.097",,,,,
"1739557830.411",,,"0.963",,,,
"1739557830.413",,,,"69",,,
"1739557830.414",,,,,"-15",,
"1739557830.416",,,,,,"955",
"1739557830.422","0.064",,,,,,
"1739557830.423",,"0.1",,,,,
"1739557830.425",,,"0.957",,,,
"1739557830.426",,,,"48",,,
"1739557830.428",,,,,"-16",,
"1739557830.43",,,,,,"1021",
"1739557830.438","0.044",,,,,,
"1739557830.44",,"0.13","0.949",,,,
"1739557830.442",,,,"51",,,
"1739557830.443",,,,,"248",,
"1739557830.445",,,,,,"978",
"1739557830.451","0.026",,,,,,
"1739557830.453",,"0.134",,,,,
"1739557830.454",,,"0.931",,,,
"1739557830.456",,,,"66",,,
"1739557830.457",,,,,"0",,
"1739557830.459",,,,,,"1003",
"1739557830.465","0.033",,,,,,
"1739557830.467",,"0.117",,,,,
"1739557830.468",,,"0.945",,,,
"1739557830.47",,,,"84",,,
"1739557830.471",,,,,"-39",,
"1739557830.473",,,,,,"977",
"1739557830.479","0.04",,,,,,
"1739557830.481",,"0.101",,,,,
"1739557830.482",,,"0.964",,,,
"1739557830.484",,,,"113",,,
"1739557830.486",,,,,"-44",,
"1739557830.488",,,,,,"959",
"1739557830.493","0.076",,,,,,
"1739557830.495",,"0.074",,,,,
"1739557830.496",,,"0.969",,,,
"1739557830.498",,,,"110",,,
"1739557830.499",,,,,"-40",,
"1739557830.501",,,,,,"963",
"1739557830.507","0.08",,,,,,
"1739557830.509",,"0.048",,,,,
"1739557830.51",,,"0.98",,,,
"1739557830.512",,,,"105",,,
"1739557830.514",,,,,"-33",,
"1739557830.515",,,,,,"986",
"1739557830.522","0.087",,,,,,
"1739557830.523",,"0.043",,,,,
"1739557830.525",,,"0.988",,,,
"1739557830.527",,,,"112",,,
"1739557830.528",,,,,"2",,
"1739557830.529",,,,,,"986",
"1739557830.535","0.09",,,,,,
"1739557830.537",,"0.043",,,,,
"1739557830.538",,,"0.993",,,,
"1739557830.54",,,,"94",,,
"1739557830.541",,,,,"-5",,
"1739557830.543",,,,,,"989",
"1739557830.55","0.093",,,,,,
"1739557830.551",,"0.019",,,,,
"1739557830.553",,,"0.997",,,,
"1739557830.554",,,,"94",,,
"1739557830.556",,,,,"-255",,
"1739557830.557",,,,,,"995",
"1739557830.564","0.1",,,,,,
"1739557830.565",,"0.019",,,,,
"1739557830.567",,,"0.994",,,,
"1739557830.568",,,,"124",,,
"1739557830.57",,,,,"-14",,
"1739557830.572",,,,,,"996",
"1739557830.579","0.113",,,,,,
"1739557830.58",,"-0.001",,,,,
"1739557830.582",,,"0.995",,,,
"1739557830.583",,,,"183",,,
"1739557830.585",,,,,"-54",,
"1739557830.587",,,,,,"989",
"1739557830.593","0.121",,,,,,
"1739557830.594",,"-0.001",,,,,
"1739557830.596",,,"0.995",,,,
"1739557830.598",,,,"139",,,
"1739557830.599",,,,,"1",,
"1739557830.601",,,,,,"1002",
"1739557830.607","0.124",,,,,,
"1739557830.609",,"-0.0032",,,,,
"1739557830.61",,,"0.996",,,,
"1739557830.612",,,,"118",,,
"1739557830.613",,,,,"-256",,
"1739557830.615",,,,,,"989",
"1739557830.622","0.129",,,,,,
"1739557830.624",,"-0.0034",,,,,
"1739557830.625",,,"1.016",,,,
"1739557830.627",,,,"158",,,
"1739557830.628",,,,,"-64",,
"1739557830.63",,,,,,"1157",
"1739557830.636","0.142",,,,,,
"1739557830.638",,"-0.0042",,,,,
"1739557830.639",,,"1.028",,,,
"1739557830.641",,,,"241",,,
"1739557830.643",,,,,"-127",,
"1739557830.644",,,,,,"1083",
"1739557830.65","0.148",,,,,,
"1739557830.652",,"-0.0044",,,,,
"1739557830.654",,,"1.036",,,,
"1739557830.655",,,,"167",,,
"1739557830.657",,,,,"-53",,
"1739557830.659",,,,,,"1065",
"1739557830.665","0.155",,,,,,
"1739557830.667",,"-0.0053",,,,,
"1739557830.668",,,"1.036",,,,
"1739557830.67",,,,"188",,,
"1739557830.671",,,,,"-86",,
"1739557830.673",,,,,,"983",
"1739557830.68","0.167",,,,,,
"1739557830.681",,"-0.0057",,,,,
"1739557830.682",,,"1.03",,,,
"1739557830.684",,,,"206",,,
"1739557830.685",,,,,"-48",,
"1739557830.687",,,,,,"930",
"1739557830.694","0.177",,,,,,
"1739557830.696",,"-0.0034",,,,,
"1739557830.697",,,"1.025",,,,
"1739557830.699",,,,"201",,,
"1739557830.701",,,,,"-26",,
"1739557830.702",,,,,,"944",
"1739557830.708","0.187",,,,,,
"1739557830.71",,"-0.0039",,,,,
"1739557830.711",,,"1.014",,,,
"1739557830.713",,,,"216",,,
"1739557830.715",,,,,"-56",,
"1739557830.716",,,,,,"887",
"1739557830.723","0.198",,,,,,
"1739557830.724",,"-0.0036",,,,,
"1739557830.726",,,"1.011",,,,
"1739557830.727",,,,"297",,,
"1739557830.729",,,,,"-31",,
"1739557830.731",,,,,,"963",
"1739557830.737","0.214",,,,,,
"1739557830.739",,"-0.0041",,,,,
"1739557830.741",,,"1.011",,,,
"1739557830.742",,,,"304",,,
"1739557830.744",,,,,"-41",,
"1739557830.745",,,,,,"998",
"1739557830.751","0.225",,,,,,
"1739557830.753",,"-0.0015",,,,,
"1739557830.755",,,"1.007",,,,
"1739557830.756",,,,"224",,,
"1739557830.758",,,,,"-5",,
"1739557830.759",,,,,,"955",
"1739557830.765","0.231",,,,,,
"1739557830.767",,"-0.008",,,,,
"1739557830.768",,,"0.985",,,,
"1739557830.77",,,,"218",,,
"1739557830.772",,,,,"12",,
"1739557830.773",,,,,,"938",
"1739557830.78","0.235",,,,,,
"1739557830.781",,"0",,,,,
"1739557830.782",,,"0.972",,,,
"1739557830.784",,,,"283",,,
"1739557830.786",,,,,"-35",,
"1739557830.787",,,,,,"948",
"1739557830.794","0.248",,,,,,
"1739557830.795",,"0",,,,,
"1739557830.797",,,"0.963",,,,
"1739557830.798",,,,"299",,,
"1739557830.8",,,,,"-57",,
"1739557830.802",,,,,,"971",
"1739557830.81","0.262","0.001",,,,,
"1739557830.811",,,"0.961",,,,
"1739557830.813",,,,"319",,,
"1739557830.815",,,,,"-80",,
"1739557830.816",,,,,,"967",
"1739557830.823","0.275",,,,,,
"1739557830.824",,"0.002",,,,,
"1739557830.826",,,"0.962",,,,
"1739557830.827",,,,"344",,,
"1739557830.829",,,,,"-33",,
"1739557830.831",,,,,,"942",
"1739557830.838","0.282",,,,,,
"1739557830.84",,"0.005","0.957",,,,
"1739557830.842",,,,"267",,,
"1739557830.843",,,,,"2",,
"1739557830.845",,,,,,"896",
"1739557830.852","0.291",,,,,,
"1739557830.853",,"0.011",,,,,
"1739557830.855",,,"0.957",,,,
"1739557830.856",,,,"303",,,
"1739557830.858",,,,,"8",,
"1739557830.859",,,,,,"888",
"1739557830.866","0.295",,,,,,
"1739557830.867",,"0.013",,,,,
"1739557830.869",,,"0.951",,,,
"1739557830.87",,,,"341",,,
"1739557830.872",,,,,"-12",,
"1739557830.874",,,,,,"902",
"1739557830.88","0.305",,,,,,
"1739557830.882",,"0.011",,,,,
"1739557830.883",,,"0.943",,,,
"1739557830.885",,,,"399",,,
"1739557830.886",,,,,"-59",,
"1739557830.888",,,,,,"910",
"1739557830.894","0.325",,,,,,
"1739557830.896",,"0.005",,,,,
"1739557830.897",,,"0.94",,,,
"1739557830.899",,,,"431",,,
"1739557830.901",,,,,"-71",,
"1739557830.902",,,,,,"925",
"1739557830.908","0.347",,,,,,
"1739557830.91",,"-0.001",,,,,
"1739557830.911",,,"0.94",,,,
"1739557830.913",,,,"436",,,
"1739557830.915",,,,,"-56",,
"1739557830.916",,,,,,"938",
"1739557830.924","0.358",,,,,,
"1739557830.925",,"0.027",,,,,
"1739557830.926",,,"0.935",,,,
"1739557830.928",,,,"397",,,
"1739557830.929",,,,,"252",,
"1739557830.931",,,,,,"902",
"1739557830.938","0.364",,,,,,
"1739557830.939",,"0.036",,,,,
"1739557830.94",,,"0.924",,,,
"1739557830.942",,,,"355",,,
"1739557830.943",,,,,"39",,
"1739557830.945",,,,,,"861",
"1739557830.952","0.374",,,,,,
"1739557830.953",,"0.045",,,,,
"1739557830.954",,,"0.911",,,,
"1739557830.956",,,,"416",,,
"1739557830.958",,,,,"7",,
"1739557830.959",,,,,,"838",
"1739557830.965","0.415",,,,,,
"1739557830.967",,"0.073",,,,,
"1739557830.968",,,"0.9",,,,
"1739557830.97",,,,"761",,,
"1739557830.972",,,,,"250",,
"1739557830.973",,,,,,"835",
"1739557830.979","0.446",,,,,,
"1739557830.981",,"0.07",,,,,
"1739557830.984",,,"0.899","570",,,
"1739557830.986",,,,,"-29",,
"1739557830.987",,,,,,"882",
"1739557830.995","0.473",,,,,,
"1739557830.996",,"0.068",,,,,
"1739557830.997",,,"0.905",,,,
"1739557830.999",,,,"579",,,
"1739557831.001",,,,,"-15",,
"1739557831.002",,,,,,"945",
"1739557831.009","0.466",,,,,,
"1739557831.01",,"0.054",,,,,
"1739557831.011",,,"0.906",,,,
"1739557831.013",,,,"263",,,
"1739557831.015",,,,,"-154",,
"1739557831.016",,,,,,"916",
"1739557831.023","0.472",,,,,,
"1739557831.024",,"0.049",,,,,
"1739557831.025",,,"0.893",,,,
"1739557831.027",,,,"460",,,
"1739557831.029",,,,,"-104",,
"1739557831.03",,,,,,"775",
"1739557831.037","0.473",,,,,,
"1739557831.038",,"0.081",,,,,
"1739557831.039",,,"0.887",,,,
"1739557831.041",,,,"447",,,
"1739557831.043",,,,,"251",,
"1739557831.044",,,,,,"870",
"1739557831.051","0.481",,,,,,
"1739557831.052",,"0.091",,,,,
"1739557831.053",,,"0.87",,,,
"1739557831.055",,,,"517",,,
"1739557831.057",,,,,"41",,
"1739557831.058",,,,,,"766",
"1739557831.065","0.501",,,,,,
"1739557831.067",,"0.04",,,,,
"1739557831.068",,,"0.857",,,,
"1739557831.07",,,,"589",,,
"1739557831.072",,,,,"-256",,
"1739557831.073",,,,,,"773",
"1739557831.08","0.529",,,,,,
"1739557831.082",,"0.022",,,,,
"1739557831.083",,,"0.825",,,,
"1739557831.084",,,,"637",,,
"1739557831.086",,,,,"-142",,
"1739557831.088",,,,,,"540",
"1739557831.094","0.554",,,,,,
"1739557831.095",,"0.014",,,,,
"1739557831.097",,,"0.81",,,,
"1739557831.099",,,,"672",,,
"1739557831.1",,,,,"-73",,
"1739557831.102",,,,,,"688",
"1739557831.109","0.535",,,,,,
"1739557831.11",,"-0.0031",,,,,
"1739557831.112",,,"0.788",,,,
"1739557831.114",,,,"567",,,
"1739557831.115",,,,,"-207",,
"1739557831.117",,,,,,"616",
"1739557831.123","0.544",,,,,,
"1739557831.125",,"-0.0032",,,,,
"1739557831.126",,,"0.767",,,,
"1739557831.128",,,,"661",,,
"1739557831.129",,,,,"-42",,
"1739557831.132",,,,,,"674",
"1739557831.137","0.547",,,,,,
"1739557831.139",,"-0.0031",,,,,
"1739557831.14",,,"0.747",,,,
"1739557831.142",,,,"612",,,
"1739557831.143",,,,,"-3",,
"1739557831.145",,,,,,"742",
"1739557831.152","0.587",,,,,,
"1739557831.154",,"-0.003",,,,,
"1739557831.155",,,"0.711",,,,
"1739557831.157",,,,"655",,,
"1739557831.158",,,,,"-152",,
"1739557831.16",,,,,,"560",
"1739557831.166","0.609",,,,,,
"1739557831.168",,"-0.0037",,,,,
"1739557831.17",,,"0.701",,,,
"1739557831.172",,,,"687",,,
"1739557831.173",,,,,"-174",,
"1739557831.175",,,,,,"676",
"1739557831.181","0.632",,,,,,
"1739557831.183",,"-0.008",,,,,
"1739557831.184",,,"0.684",,,,
"1739557831.186",,,,"676",,,
"1739557831.188",,,,,"-171",,
"1739557831.189",,,,,,"701",
"1739557831.195","0.65",,,,,,
"1739557831.197",,"-0.1",,,,,
"1739557831.198",,,"0.678",,,,
"1739557831.2",,,,"700",,,
"1739557831.202",,,,,"-162",,
"1739557831.203",,,,,,"699",
"1739557831.209","0.664",,,,,,
"1739557831.211",,"-0.0089",,,,,
"1739557831.212",,,"0.669",,,,
"1739557831.214",,,,"722",,,
"1739557831.216",,,,,"-144",,
"1739557831.217",,,,,,"681",
"1739557831.224","0.677",,,,,,
"1739557831.226",,"-0.0087",,,,,
"1739557831.228",,,"0.681",,,,
"1739557831.229",,,,"768",,,
"1739557831.231",,,,,"-121",,
"1739557831.233",,,,,,"660",
"1739557831.239","0.689",,,,,,
"1739557831.24",,"-0.0092",,,,,
"1739557831.242",,,"0.679",,,,
"1739557831.243",,,,"798",,,
"1739557831.246",,,,,"-122",,
"1739557831.247",,,,,,"668",
"1739557831.254","0.714","-0.0088",,,,,
"1739557831.256",,,"0.681",,,,
"1739557831.257",,,,"810",,,
"1739557831.259",,,,,"-168",,
"1739557831.261",,,,,,"639",
"1739557831.267","0.727",,,,,,
"1739557831.269",,"-0.1",,,,,
"1739557831.27",,,"0.669",,,,
"1739557831.272",,,,"797",,,
"1739557831.274",,,,,"-161",,
"1739557831.275",,,,,,"558",
"1739557831.281","0.744",,,,,,
"1739557831.283",,"-0.111",,,,,
"1739557831.285",,,"0.644",,,,
"1739557831.286",,,,"774",,,
"1739557831.288",,,,,"-120",,
"1739557831.289",,,,,,"487",
"1739557831.297","0.754",,,,,,
"1739557831.298",,"-0.108",,,,,
"1739557831.3",,,"0.638",,,,
"1739557831.301",,,,"755",,,
"1739557831.303",,,,,"-117",,
"1739557831.305",,,,,,"499",
"1739557831.311","0.759",,,,,,
"1739557831.312",,"-0.104",,,,,
"1739557831.314",,,"0.624",,,,
"1739557831.315",,,,"739",,,
"1739557831.317",,,,,"-136",,
"1739557831.32",,,,,,"544",
"1739557831.325","0.765",,,,,,
"1739557831.328",,"-0.105","0.609",,,,
"1739557831.33",,,,"743",,,
"1739557831.332",,,,,"-179",,
"1739557831.333",,,,,,"543",
"1739557831.34","0.771",,,,,,
"1739557831.341",,"-0.108",,,,,
"1739557831.343",,,"0.594",,,,
"1739557831.344",,,,"751",,,
"1739557831.346",,,,,"-194",,
"1739557831.348",,,,,,"549",
"1739557831.354","0.777",,,,,,
"1739557831.355",,"-0.113",,,,,
"1739557831.357",,,"0.58",,,,
"1739557831.359",,,,"789",,,
"1739557831.36",,,,,"-197",,
"1739557831.362",,,,,,"547",
"1739557831.368","0.781",,,,,,
"1739557831.37",,"-0.124",,,,,
"1739557831.371",,,"0.568",,,,
"1739557831.373",,,,"802",,,
"1739557831.375",,,,,"-233",,
"1739557831.376",,,,,,"533",
"1739557831.383","0.781",,,,,,
"1739557831.384",,"-0.139",,,,,
"1739557831.386",,,"0.551",,,,
"1739557831.388",,,,"798",,,
"1739557831.389",,,,,"-263",,
"1739557831.391",,,,,,"502",
"1739557831.397","0.778",,,,,,
"1739557831.399",,"-0.15",,,,,
"1739557831.4",,,"0.533",,,,
"1739557831.402",,,,"781",,,
"1739557831.403",,,,,"-282",,
"1739557831.405",,,,,,"461",
"1739557831.411","0.772",,,,,,
"1739557831.413",,"-0.161",,,,,
"1739557831.414",,,"0.521",,,,
"1739557831.416",,,,"739",,,
"1739557831.418",,,,,"-276",,
"1739557831.419",,,,,,"438",
"1739557831.425","0.769",,,,,,
"1739557831.427",,"-0.175",,,,,
"1739557831.428",,,"0.516",,,,
"1739557831.43",,,,"742",,,
"1739557831.432",,,,,"-260",,
"1739557831.433",,,,,,"435",
"1739557831.44","0.771",,,,,,
"1739557831.442",,"-0.19",,,,,
"1739557831.443",,,"0.508",,,,
"1739557831.444",,,,"775",,,
"1739557831.446",,,,,"-259",,
"1739557831.448",,,,,,"422",
"1739557831.455","0.777",,,,,,
"1739557831.457",,"-0.204",,,,,
"1739557831.458",,,"0.493",,,,
"1739557831.46",,,,"803",,,
"1739557831.462",,,,,"-280",,
"1739557831.463",,,,,,"396",
"1739557831.469","0.786",,,,,,
"1739557831.471",,"-0.216",,,,,
"1739557831.473",,,"0.479",,,,
"1739557831.474",,,,"834",,,
"1739557831.476",,,,,"-295",,
"1739557831.477",,,,,,"398",
"1739557831.484","0.798",,,,,,
"1739557831.486",,"-0.227",,,,,
"1739557831.487",,,"0.465",,,,
"1739557831.489",,,,"866",,,
"1739557831.491",,,,,"-309",,
"1739557831.492",,,,,,"412",
"1739557831.498","0.804",,,,,,
"1739557831.5",,"-0.241",,,,,
"1739557831.501",,,"0.451",,,,
"1739557831.503",,,,"855",,,
"1739557831.505",,,,,"-337",,
"1739557831.506",,,,,,"400",
"1739557831.512","0.809",,,,,,
"1739557831.514",,"-0.249",,,,,
"1739557831.515",,,"0.436",,,,
"1739557831.517",,,,"851",,,
"1739557831.519",,,,,"-312",,
"1739557831.52",,,,,,"386",
"1739557831.527","0.816",,,,,,
"1739557831.528",,"-0.254",,,,,
"1739557831.53",,,"0.42",,,,
"1739557831.532",,,,"869",,,
"1739557831.533",,,,,"-310",,
"1739557831.535",,,,,,"347",
"1739557831.541","0.827",,,,,,
"1739557831.542",,"-0.256",,,,,
"1739557831.544",,,"0.408",,,,
"1739557831.546",,,,"891",,,
"1739557831.547",,,,,"-308",,
"1739557831.549",,,,,,"341",
"1739557831.556","0.845",,,,,,
"1739557831.557",,"-0.259",,,,,
"1739557831.559",,,"0.396",,,,
"1739557831.56",,,,"920",,,
"1739557831.562",,,,,"-302",,
"1739557831.564",,,,,,"311",
"1739557831.57","0.861",,,,,,
"1739557831.571",,"-0.267",,,,,
"1739557831.573",,,"0.38",,,,
"1739557831.574",,,,"898",,,
"1739557831.576",,,,,"-343",,
"1739557831.578",,,,,,"276",
"1739557831.584","0.868",,,,,,
"1739557831.586",,"-0.276",,,,,
"1739557831.587",,,"0.361",,,,
"1739557831.589",,,,"846",,,
"1739557831.59",,,,,"-343",,
"1739557831.592",,,,,,"238",
"1739557831.599","0.872",,,,,,
"1739557831.6",,"-0.28",,,,,
"1739557831.602",,,"0.342",,,,
"1739557831.603",,,,"837",,,
"1739557831.605",,,,,"-327",,
"1739557831.607",,,,,,"199",
"1739557831.613","0.876",,,,,,
"1739557831.614",,"-0.285",,,,,
"1739557831.616",,,"0.319",,,,
"1739557831.617",,,,"875",,,
"1739557831.619",,,,,"-341",,
"1739557831.621",,,,,,"167",
"1739557831.628","0.879",,,,,,
"1739557831.629",,"-0.289",,,,,
"1739557831.631",,,"0.292",,,,
"1739557831.633",,,,"902",,,
"1739557831.634",,,,,"-348",,
"1739557831.636",,,,,,"143",
"1739557831.642","0.876",,,,,,
"1739557831.644",,"-0.293",,,,,
"1739557831.645",,,"0.268",,,,
"1739557831.647",,,,"818",,,
"1739557831.648",,,,,"-383",,
"1739557831.65",,,,,,"167",
"1739557831.656","0.879",,,,,,
"1739557831.658",,"-0.293",,,,,
"1739557831.659",,,"0.247",,,,
"1739557831.661",,,,"889",,,
"1739557831.663",,,,,"-312",,
"1739557831.664",,,,,,"169",
"1739557831.671","0.882",,,,,,
"1739557831.673",,"-0.294",,,,,
"1739557831.674",,,"0.227",,,,
"1739557831.676",,,,"894",,,
"1739557831.678",,,,,"-315",,
"1739557831.679",,,,,,"152",
"1739557831.686","0.88",,,,,,
"1739557831.687",,"-0.298",,,,,
"1739557831.688",,,"0.209",,,,
"1739557831.69",,,,"873",,,
"1739557831.692",,,,,"-351",,
"1739557831.693",,,,,,"162",
"1739557831.701","0.877",,,,,,
"1739557831.702",,"-0.304",,,,,
"1739557831.703",,,"0.189",,,,
"1739557831.705",,,,"892",,,
"1739557831.707",,,,,"-359",,
"1739557831.708",,,,,,"113",
"1739557831.714","0.88",,,,,,
"1739557831.716",,"-0.306",,,,,
"1739557831.717",,,"0.17",,,,
"1739557831.719",,,,"924",,,
"1739557831.721",,,,,"-360",,
"1739557831.722",,,,,,"82",
"1739557831.729","0.892",,,,,,
"1739557831.73",,"-0.307",,,,,
"1739557831.732",,,"0.151",,,,
"1739557831.733",,,,"967",,,
"1739557831.735",,,,,"-361",,
"1739557831.737",,,,,,"49",
"1739557831.743","0.907",,,,,,
"1739557831.745",,"-0.312",,,,,
"1739557831.746",,,"0.134",,,,
"1739557831.748",,,,"990",,,
"1739557831.75",,,,,"-370",,
"1739557831.751",,,,,,"27",
"1739557831.758","0.916",,,,,,
"1739557831.759",,"-0.314",,,,,
"1739557831.761",,,"0.119",,,,
"1739557831.762",,,,"964",,,
"1739557831.764",,,,,"-363",,
"1739557831.765",,,,,,"18",
"1739557831.772","0.917",,,,,,
"1739557831.773",,"-0.314",,,,,
"1739557831.775",,,"0.106",,,,
"1739557831.776",,,,"908",,,
"1739557831.778",,,,,"-345",,
"1739557831.78",,,,,,"11",
"1739557831.787","0.921",,,,,,
"1739557831.788",,"-0.309",,,,,
"1739557831.79",,,"0.09",,,,
"1739557831.791",,,,"858",,,
"1739557831.793",,,,,"-333",,
"1739557831.794",,,,,,"8",
"1739557831.801","0.917",,,,,,
"1739557831.802",,"-0.313",,,,,
"1739557831.804",,,"0.071",,,,
"1739557831.805",,,,"849",,,
"1739557831.807",,,,,"-354",,
"1739557831.809",,,,,,"-24",
"1739557831.816","0.915",,,,,,
"1739557831.817",,"-0.318",,,,,
"1739557831.819",,,"0.049",,,,
"1739557831.82",,,,"876",,,
"1739557831.822",,,,,"-371",,
"1739557831.824",,,,,,"-65",
"1739557831.83","0.919",,,,,,
"1739557831.831",,"-0.324",,,,,
"1739557831.833",,,"0.023",,,,
"1739557831.834",,,,"911",,,
"1739557831.836",,,,,"-402",,
"1739557831.838",,,,,,"-94",
"1739557831.844","0.921",,,,,,
"1739557831.846",,"-0.327",,,,,
"1739557831.847",,,"0",,,,
"1739557831.85",,,,"915",,,
"1739557831.851",,,,,"-393",,
"1739557831.852",,,,,,"-120",
"1739557831.859","0.92",,,,,,
"1739557831.86",,"-0.329",,,,,
"1739557831.862",,,"-0.0022",,,,
"1739557831.864",,,,"915",,,
"1739557831.865",,,,,"-381",,
"1739557831.867",,,,,,"-144",
"1739557831.873","0.913",,,,,,
"1739557831.875",,"-0.329",,,,,
"1739557831.876",,,"-0.0041",,,,
"1739557831.878",,,,"899",,,
"1739557831.88",,,,,"-364",,
"1739557831.881",,,,,,"-149",
"1739557831.888","0.904",,,,,,
"1739557831.89",,"-0.329",,,,,
"1739557831.891",,,"-0.0059",,,,
"1739557831.893",,,,"892",,,
"1739557831.895",,,,,"-362",,
"1739557831.896",,,,,,"-151",
"1739557831.902","0.895",,,,,,
"1739557831.904",,"-0.328",,,,,
"1739557831.906",,,"-0.0076",,,,
"1739557831.907",,,,"881",,,
"1739557831.909",,,,,"-354",,
"1739557831.911",,,,,,"-148",
"1739557831.917","0.892",,,,,,
"1739557831.92",,"-0.332","-0.0094",,,,
"1739557831.922",,,,"877",,,
"1739557831.924",,,,,"-385",,
"1739557831.925",,,,,,"-174",
"1739557831.932","0.896",,,,,,
"1739557831.934",,"-0.337",,,,,
"1739557831.935",,,"-0.111",,,,
"1739557831.937",,,,"897",,,
"1739557831.939",,,,,"-389",,
"1739557831.94",,,,,,"-162",
"1739557831.946","0.903",,,,,,
"1739557831.948",,"-0.342",,,,,
"1739557831.949",,,"-0.127",,,,
"1739557831.951",,,,"920",,,
"1739557831.953",,,,,"-397",,
"1739557831.955",,,,,,"-180",
"1739557831.961","0.907",,,,,,
"1739557831.963",,"-0.344",,,,,
"1739557831.964",,,"-0.142",,,,
"1739557831.965",,,,"918",,,
"1739557831.967",,,,,"-397",,
"1739557831.969",,,,,,"-214",
"1739557831.975","0.906",,,,,,
"1739557831.977",,"-0.343",,,,,
"1739557831.978",,,"-0.158",,,,
"1739557831.98",,,,"901",,,
"1739557831.982",,,,,"-390",,
"1739557831.984",,,,,,"-259",
"1739557831.99","0.903",,,,,,
"1739557831.991",,"-0.342",,,,,
"1739557831.993",,,"-0.173",,,,
"1739557831.995",,,,"886",,,
"1739557831.996",,,,,"-384",,
"1739557831.998",,,,,,"-265",
"1739557832.005","0.899",,,,,,
"1739557832.007",,"-0.344",,,,,
"1739557832.009",,,"-0.209",,,,
"1739557832.01",,,,"867",,,
"1739557832.012",,,,,"-398",,
"1739557832.013",,,,,,"-506",
"1739557832.02","0.895",,,,,,
"1739557832.022",,"-0.348",,,,,
"1739557832.024",,,"-0.22",,,,
"1739557832.025",,,,"863",,,
"1739557832.027",,,,,"-406",,
"1739557832.029",,,,,,"-262",
"1739557832.035","0.895",,,,,,
"1739557832.036",,"-0.354",,,,,
"1739557832.038",,,"-0.23",,,,
"1739557832.039",,,,"889",,,
"1739557832.041",,,,,"-421",,
"1739557832.043",,,,,,"-248",
"1739557832.05","0.895",,,,,,
"1739557832.052",,"-0.363",,,,,
"1739557832.053",,,"-0.241",,,,
"1739557832.054",,,,"885",,,
"1739557832.056",,,,,"-449",,
"1739557832.058",,,,,,"-256",
"1739557832.065","0.895",,,,,,
"1739557832.066",,"-0.371",,,,,
"1739557832.068",,,"-0.249",,,,
"1739557832.069",,,,"876",,,
"1739557832.071",,,,,"-461",,
"1739557832.073",,,,,,"-258",
"1739557832.079","0.891",,,,,,
"1739557832.08",,"-0.378",,,,,
"1739557832.082",,,"-0.261",,,,
"1739557832.084",,,,"859",,,
"1739557832.085",,,,,"-456",,
"1739557832.087",,,,,,"-281",
"1739557832.094","0.886",,,,,,
"1739557832.095",,"-0.385",,,,,
"1739557832.097",,,"-0.277",,,,
"1739557832.099",,,,"863",,,
"1739557832.1",,,,,"-472",,
"1739557832.102",,,,,,"-342",
"1739557832.109","0.881",,,,,,
"1739557832.11",,"-0.395",,,,,
"1739557832.112",,,"-0.294",,,,
"1739557832.114",,,,"875",,,
"1739557832.115",,,,,"-496",,
"1739557832.117",,,,,,"-382",
"1739557832.123","0.877",,,,,,
"1739557832.125",,"-0.405",,,,,
"1739557832.126",,,"-0.306",,,,
"1739557832.128",,,,"860",,,
"1739557832.129",,,,,"-491",,
"1739557832.131",,,,,,"-379",
"1739557832.139","0.873",,,,,,
"1739557832.14",,"-0.414",,,,,
"1739557832.141",,,"-0.315",,,,
"1739557832.143",,,,"846",,,
"1739557832.145",,,,,"-477",,
"1739557832.146",,,,,,"-359",
"1739557832.153","0.87",,,,,,
"1739557832.154",,"-0.421",,,,,
"1739557832.156",,,"-0.303",,,,
"1739557832.157",,,,"835",,,
"1739557832.159",,,,,"-463",,
"1739557832.161",,,,,,"-381",
"1739557832.167","0.867",,,,,,
"1739557832.17",,"-0.423","-0.316",,,,
"1739557832.172",,,,"838",,,
"1739557832.175",,,,,"-424","-391",
"1739557832.182","0.862",,,,,,
"1739557832.184",,"-0.425",,,,,
"1739557832.186",,,"-0.326",,,,
"1739557832.188",,,,"830",,,
"1739557832.189",,,,,"-445",,
"1739557832.19",,,,,,"-354",
"1739557832.196","0.852",,,,,,
"1739557832.198",,"-0.428",,,,,
"1739557832.199",,,"-0.336",,,,
"1739557832.201",,,,"789",,,
"1739557832.203",,,,,"-475",,
"1739557832.205",,,,,,"-352",
"1739557832.211","0.843",,,,,,
"1739557832.212",,"-0.432",,,,,
"1739557832.214",,,"-0.35",,,,
"1739557832.215",,,,"784",,,
"1739557832.217",,,,,"-501",,
"1739557832.219",,,,,,"-398",
"1739557832.225","0.835",,,,,,
"1739557832.227",,"-0.435",,,,,
"1739557832.228",,,"-0.365",,,,
"1739557832.23",,,,"781",,,
"1739557832.232",,,,,"-489",,
"1739557832.233",,,,,,"-432",
"1739557832.239","0.828",,,,,,
"1739557832.241",,"-0.437",,,,,
"1739557832.242",,,"-0.377",,,,
"1739557832.244",,,,"797",,,
"1739557832.246",,,,,"-491",,
"1739557832.248",,,,,,"-460",
"1739557832.254","0.822",,,,,,
"1739557832.256",,"-0.435",,,,,
"1739557832.258",,,"-0.387",,,,
"1739557832.259",,,,"812",,,
"1739557832.261",,,,,"-479",,
"1739557832.263",,,,,,"-479",
"1739557832.269","0.816",,,,,,
"1739557832.27",,"-0.434",,,,,
"1739557832.272",,,"-0.397",,,,
"1739557832.274",,,,"803",,,
"1739557832.275",,,,,"-478",,
"1739557832.277",,,,,,"-480",
"1739557832.283","0.809",,,,,,
"1739557832.285",,"-0.434",,,,,
"1739557832.286",,,"-0.409",,,,
"1739557832.288",,,,"775",,,
"1739557832.29",,,,,"-474",,
"1739557832.291",,,,,,"-483",
"1739557832.298","0.801",,,,,,
"1739557832.3",,"-0.434",,,,,
"1739557832.301",,,"-0.418",,,,
"1739557832.302",,,,"749",,,
"1739557832.304",,,,,"-469",,
"1739557832.306",,,,,,"-466",
"1739557832.312","0.791",,,,,,
"1739557832.313",,"-0.438",,,,,
"1739557832.315",,,"-0.424",,,,
"1739557832.317",,,,"740",,,
"1739557832.318",,,,,"-461",,
"1739557832.32",,,,,,"-453",
"1739557832.326","0.781",,,,,,
"1739557832.328",,"-0.44",,,,,
"1739557832.329",,,"-0.435",,,,
"1739557832.331",,,,"731",,,
"1739557832.333",,,,,"-468",,
"1739557832.335",,,,,,"-468",
"1739557832.341","0.777",,,,,,
"1739557832.342",,"-0.441",,,,,
"1739557832.344",,,"-0.45",,,,
"1739557832.345",,,,"748",,,
"1739557832.347",,,,,"-484",,
"1739557832.349",,,,,,"-497",
"1739557832.355","0.772",,,,,,
"1739557832.357",,"-0.441",,,,,
"1739557832.358",,,"-0.461",,,,
"1739557832.36",,,,"737",,,
"1739557832.361",,,,,"-501",,
"1739557832.363",,,,,,"-510",
"1739557832.37","0.765",,,,,,
"1739557832.371",,"-0.469",,,,,
"1739557832.374",,,"-0.471",,,,
"1739557832.375",,,,"714",,,
"1739557832.376",,,,,"-765",,
"1739557832.378",,,,,,"-533",
"1739557832.384","0.756",,,,,,
"1739557832.386",,"-0.473",,,,,
"1739557832.387",,,"-0.481",,,,
"1739557832.389",,,,"707",,,
"1739557832.391",,,,,"-529",,
"1739557832.392",,,,,,"-561",
"1739557832.398","0.744",,,,,,
"1739557832.4",,"-0.477",,,,,
"1739557832.402",,,"-0.49",,,,
"1739557832.403",,,,"688",,,
"1739557832.405",,,,,"-528",,
"1739557832.407",,,,,,"-566",
"1739557832.414","0.73",,,,,,
"1739557832.416",,"-0.48",,,,,
"1739557832.417",,,"-0.5",,,,
"1739557832.419",,,,"666",,,
"1739557832.42",,,,,"-508",,
"1739557832.422",,,,,,"-578",
"1739557832.428","0.719",,,,,,
"1739557832.43",,"-0.483",,,,,
"1739557832.431",,,"-0.506",,,,
"1739557832.433",,,,"664",,,
"1739557832.435",,,,,"-499",,
"1739557832.436",,,,,,"-544",
"1739557832.444","0.712","-0.485",,,,,
"1739557832.446",,,"-0.515",,,,
"1739557832.448",,,,"674",,,
"1739557832.449",,,,,"-490",,
"1739557832.451",,,,,,"-555",
"1739557832.459","0.707",,,,,,
"1739557832.46",,"-0.491",,,,,
"1739557832.461",,,"-0.529",,,,
"1739557832.463",,,,"696",,,
"1739557832.465",,,,,"-524",,
"1739557832.466",,,,,,"-594",
"1739557832.472","0.703",,,,,,
"1739557832.475",,"-0.498",,,,,
"1739557832.476",,,"-0.545",,,,
"1739557832.477",,,,"689",,,
"1739557832.479",,,,,"-537",,
"1739557832.481",,,,,,"-626",
"1739557832.488","0.694",,,,,,
"1739557832.489",,"-0.503",,,,,
"1739557832.49",,,"-0.557",,,,
"1739557832.492",,,,"654",,,
"1739557832.494",,,,,"-531",,
"1739557832.496",,,,,,"-620",
"1739557832.501","0.682",,,,,,
"1739557832.503",,"-0.507",,,,,
"1739557832.505",,,"-0.565",,,,
"1739557832.506",,,,"616",,,
"1739557832.508",,,,,"-537",,
"1739557832.51",,,,,,"-590",
"1739557832.516","0.67",,,,,,
"1739557832.518",,"-0.483",,,,,
"1739557832.519",,,"-0.569",,,,
"1739557832.521",,,,"595",,,
"1739557832.523",,,,,"-525",,
"1739557832.524",,,,,,"-578",
"1739557832.531","0.657",,,,,,
"1739557832.533",,"-0.48",,,,,
"1739557832.535",,,"-0.57",,,,
"1739557832.536",,,,"580",,,
"1739557832.538",,,,,"-502",,
"1739557832.54",,,,,,"-571",
"1739557832.546","0.646",,,,,,
"1739557832.547",,"-0.476",,,,,
"1739557832.549",,,"-0.573",,,,
"1739557832.55",,,,"573",,,
"1739557832.552",,,,,"-493",,
"1739557832.554",,,,,,"-591",
"1739557832.561","0.637",,,,,,
"1739557832.562",,"-0.476",,,,,
"1739557832.564",,,"-0.576",,,,
"1739557832.565",,,,"581",,,
"1739557832.567",,,,,"-509",,
"1739557832.569",,,,,,"-611",
"1739557832.575","0.628",,,,,,
"1739557832.577",,"-0.479",,,,,
"1739557832.578",,,"-0.585",,,,
"1739557832.58",,,,"570",,,
"1739557832.581",,,,,"-529",,
"1739557832.583",,,,,,"-629",
"1739557832.589","0.618",,,,,,
"1739557832.592",,"-0.487","-0.595",,,,
"1739557832.594",,,,"579",,,
"1739557832.596",,,,,"-566",,
"1739557832.597",,,,,,"-659",
"1739557832.604","0.607",,,,,,
"1739557832.606",,"-0.492",,,,,
"1739557832.607",,,"-0.604",,,,
"1739557832.61",,,,"589",,,
"1739557832.611",,,,,"-569",,
"1739557832.613",,,,,,"-680",
"1739557832.619","0.595",,,,,,
"1739557832.62",,"-0.494",,,,,
"1739557832.622",,,"-0.606",,,,
"1739557832.624",,,,"569",,,
"1739557832.625",,,,,"-560",,
"1739557832.627",,,,,,"-654",
"1739557832.633","0.585",,,,,,
"1739557832.635",,"-0.494",,,,,
"1739557832.636",,,"-0.605",,,,
"1739557832.638",,,,"553",,,
"1739557832.64",,,,,"-535",,
"1739557832.641",,,,,,"-610",
"1739557832.648","0.576",,,,,,
"1739557832.65",,"-0.494",,,,,
"1739557832.651",,,"-0.607",,,,
"1739557832.653",,,,"521",,,
"1739557832.654",,,,,"-531",,
"1739557832.656",,,,,,"-606",
"1739557832.663","0.593",,,,,,
"1739557832.664",,"-0.494",,,,,
"1739557832.666",,,"-0.613",,,,
"1739557832.667",,,,"766",,,
"1739557832.669",,,,,"-530",,
"1739557832.671",,,,,,"-637",
"1739557832.678","0.586",,,,,,
"1739557832.679",,"-0.498",,,,,
"1739557832.681",,,"-0.623",,,,
"1739557832.682",,,,"510",,,
"1739557832.684",,,,,"-537",,
"1739557832.686",,,,,,"-672",
"1739557832.692","0.577",,,,,,
"1739557832.694",,"-0.504",,,,,
"1739557832.695",,,"-0.633",,,,
"1739557832.697",,,,"484",,,
"1739557832.699",,,,,"-553",,
"1739557832.7",,,,,,"-692",
"1739557832.706","0.565",,,,,,
"1739557832.708",,"-0.509",,,,,
"1739557832.71",,,"-0.644",,,,
"1739557832.711",,,,"457",,,
"1739557832.713",,,,,"-564",,
"1739557832.715",,,,,,"-715",
"1739557832.721","0.554",,,,,,
"1739557832.723",,"-0.512",,,,,
"1739557832.724",,,"-0.652",,,,
"1739557832.726",,,,"466",,,
"1739557832.728",,,,,"-558",,
"1739557832.729",,,,,,"-716",
"1739557832.736","0.545",,,,,,
"1739557832.737",,"-0.513",,,,,
"1739557832.739",,,"-0.656",,,,
"1739557832.74",,,,"489",,,
"1739557832.742",,,,,"-577",,
"1739557832.744",,,,,,"-695",
"1739557832.75","0.534",,,,,,
"1739557832.751",,"-0.515",,,,,
"1739557832.753",,,"-0.657",,,,
"1739557832.755",,,,"479",,,
"1739557832.756",,,,,"-585",,
"1739557832.758",,,,,,"-692",
"1739557832.766","0.522",,,,,,
"1739557832.767",,"-0.52",,,,,
"1739557832.768",,,"-0.66",,,,
"1739557832.77",,,,"449",,,
"1739557832.772",,,,,"-611",,
"1739557832.774",,,,,,"-688",
"1739557832.78","0.51",,,,,,
"1739557832.781",,"-0.528",,,,,
"1739557832.783",,,"-0.67",,,,
"1739557832.785",,,,"430",,,
"1739557832.786",,,,,"-614",,
"1739557832.788",,,,,,"-705",
"1739557832.794","0.5",,,,,,
"1739557832.796",,"-0.533",,,,,
"1739557832.797",,,"-0.682",,,,
"1739557832.799",,,,"426",,,
"1739557832.8",,,,,"-587",,
"1739557832.802",,,,,,"-725",
"1739557832.809","0.465",,,,,,
"1739557832.81",,"-0.539",,,,,
"1739557832.812",,,"-0.693",,,,
"1739557832.813",,,,"414",,,
"1739557832.815",,,,,"-584",,
"1739557832.817",,,,,,"-752",
"1739557832.824","0.448",,,,,,
"1739557832.825",,"-0.545",,,,,
"1739557832.826",,,"-0.698",,,,
"1739557832.828",,,,"334",,,
"1739557832.83",,,,,"-598",,
"1739557832.831",,,,,,"-722",
"1739557832.838","0.436",,,,,,
"1739557832.84",,"-0.553",,,,,
"1739557832.841",,,"-0.73",,,,
"1739557832.843",,,,"363",,,
"1739557832.845",,,,,"-635",,
"1739557832.847",,,,,,"-1009",
"1739557832.853","0.431",,,,,,
"1739557832.854",,"-0.558",,,,,
"1739557832.856",,,"-0.739",,,,
"1739557832.858",,,,"408",,,
"1739557832.859",,,,,"-613",,
"1739557832.861",,,,,,"-801",
"1739557832.867","0.426",,,,,,
"1739557832.87",,"-0.559",,,,,
"1739557832.871",,,"-0.745",,,,
"1739557832.872",,,,"417",,,
"1739557832.874",,,,,"-568",,
"1739557832.876",,,,,,"-784",
"1739557832.883","0.421",,,,,,
"1739557832.884",,"-0.556",,,,,
"1739557832.886",,,"-0.752",,,,
"1739557832.888",,,,"438",,,
"1739557832.889",,,,,"-549",,
"1739557832.891",,,,,,"-757",
"1739557832.897","0.416",,,,,,
"1739557832.899",,"-0.553",,,,,
"1739557832.9",,,"-0.757",,,,
"1739557832.902",,,,"433",,,
"1739557832.904",,,,,"-552",,
"1739557832.905",,,,,,"-749",
"1739557832.911","0.412",,,,,,
"1739557832.913",,"-0.547",,,,,
"1739557832.914",,,"-0.763",,,,
"1739557832.916",,,,"406",,,
"1739557832.918",,,,,"-554",,
"1739557832.92",,,,,,"-745",
"1739557832.926","0.403",,,,,,
"1739557832.928",,"-0.543",,,,,
"1739557832.929",,,"-0.771",,,,
"1739557832.931",,,,"339",,,
"1739557832.934",,,,,"-568","-785",
"1739557832.941","0.39",,,,,,
"1739557832.942",,"-0.54",,,,,
"1739557832.944",,,"-0.779",,,,
"1739557832.945",,,,"298",,,
"1739557832.947",,,,,"-565",,
"1739557832.949",,,,,,"-803",
"1739557832.955","0.376",,,,,,
"1739557832.957",,"-0.541",,,,,
"1739557832.959",,,"-0.786",,,,
"1739557832.96",,,,"272",,,
"1739557832.962",,,,,"-586",,
"1739557832.963",,,,,,"-821",
"1739557832.97","0.371",,,,,,
"1739557832.972",,"-0.538",,,,,
"1739557832.973",,,"-0.797",,,,
"1739557832.975",,,,"285",,,
"1739557832.977",,,,,"-574",,
"1739557832.978",,,,,,"-831",
"1739557832.985","0.366",,,,,,
"1739557832.986",,"-0.532",,,,,
"1739557832.988",,,"-0.778",,,,
"1739557832.989",,,,"317",,,
"1739557832.991",,,,,"-576",,
"1739557832.993",,,,,,"-827",
"1739557832.999","0.357",,,,,,
"1739557833",,"-0.528",,,,,
"1739557833.003",,,"-0.779",,,,
"1739557833.005",,,,"317","-570",,
"1739557833.008",,,,,,"-803",
"1739557833.014","0.346",,,,,,
"1739557833.015",,"-0.528",,,,,
"1739557833.016",,,"-0.779",,,,
"1739557833.018",,,,"305",,,
"1739557833.02",,,,,"-570",,
"1739557833.022",,,,,,"-784",
"1739557833.028","0.33",,,,,,
"1739557833.029",,"-0.533",,,,,
"1739557833.031",,,"-0.779",,,,
"1739557833.032",,,,"280",,,
"1739557833.034",,,,,"-593",,
"1739557833.036",,,,,,"-759",
"1739557833.043","0.311",,,,,,
"1739557833.044",,"-0.537",,,,,
"1739557833.046",,,"-0.781",,,,
"1739557833.047",,,,"246",,,
"1739557833.049",,,,,"-594",,
"1739557833.051",,,,,,"-775",
"1739557833.057","0.293",,,,,,
"1739557833.058",,"-0.542",,,,,
"1739557833.06",,,"-0.789",,,,
"1739557833.062",,,,"218",,,
"1739557833.063",,,,,"-609",,
"1739557833.065",,,,,,"-824",
"1739557833.071","0.28",,,,,,
"1739557833.072",,"-0.545",,,,,
"1739557833.074",,,"-0.796",,,,
"1739557833.076",,,,"209",,,
"1739557833.077",,,,,"-600",,
"1739557833.079",,,,,,"-855",
"1739557833.087","0.272","-0.548",,,,,
"1739557833.09",,,"-0.805","223",,,
"1739557833.093",,,,,"-588",,
"1739557833.094",,,,,,"-892",
"1739557833.1","0.267",,,,,,
"1739557833.101",,"-0.547",,,,,
"1739557833.103",,,"-0.81",,,,
"1739557833.105",,,,"219",,,
"1739557833.106",,,,,"-575",,
"1739557833.108",,,,,,"-870",
"1739557833.114","0.258",,,,,,
"1739557833.116",,"-0.547",,,,,
"1739557833.118",,,"-0.81",,,,
"1739557833.12",,,,"202",,,
"1739557833.121",,,,,"-582",,
"1739557833.123",,,,,,"-829",
"1739557833.129","0.245",,,,,,
"1739557833.13",,"-0.548",,,,,
"1739557833.132",,,"-0.809",,,,
"1739557833.135",,,,"183","-584",,
"1739557833.137",,,,,,"-820",
"1739557833.143","0.23",,,,,,
"1739557833.145",,"-0.549",,,,,
"1739557833.146",,,"-0.811",,,,
"1739557833.148",,,,"164",,,
"1739557833.15",,,,,"-574",,
"1739557833.151",,,,,,"-816",
"1739557833.158","0.217",,,,,,
"1739557833.16",,"-0.548",,,,,
"1739557833.162",,,"-0.814",,,,
"1739557833.163",,,,"176",,,
"1739557833.164",,,,,"-564",,
"1739557833.166",,,,,,"-814",
"1739557833.172","0.207",,,,,,
"1739557833.174",,"-0.545",,,,,
"1739557833.175",,,"-0.822",,,,
"1739557833.177",,,,"182",,,
"1739557833.18",,,,,"-563","-844",
"1739557833.187","0.198",,,,,,
"1739557833.188",,"-0.542",,,,,
"1739557833.19",,,"-0.831",,,,
"1739557833.192",,,,"160",,,
"1739557833.193",,,,,"-559",,
"1739557833.195",,,,,,"-867",
"1739557833.201","0.191",,,,,,
"1739557833.203",,"-0.539",,,,,
"1739557833.204",,,"-0.837",,,,
"1739557833.206",,,,"142",,,
"1739557833.208",,,,,"-579",,
"1739557833.209",,,,,,"-882",
"1739557833.216","0.181",,,,,,
"1739557833.217",,"-0.535",,,,,
"1739557833.219",,,"-0.839",,,,
"1739557833.22",,,,"110",,,
"1739557833.222",,,,,"-565",,
"1739557833.224",,,,,,"-873",
"1739557833.231","0.169",,,,,,
"1739557833.234",,"-0.534","-0.836",,,,
"1739557833.236",,,,"101",,,
"1739557833.237",,,,,"-573",,
"1739557833.239",,,,,,"-865",
"1739557833.245","0.157",,,,,,
"1739557833.247",,"-0.532",,,,,
"1739557833.248",,,"-0.833",,,,
"1739557833.25",,,,"97",,,
"1739557833.252",,,,,"-564",,
"1739557833.253",,,,,,"-839",
"1739557833.26","0.146",,,,,,
"1739557833.262",,"-0.531",,,,,
"1739557833.263",,,"-0.832",,,,
"1739557833.266",,,,"99","-570",,
"1739557833.268",,,,,,"-822",
"1739557833.275","0.139",,,,,,
"1739557833.276",,"-0.53",,,,,
"1739557833.278",,,"-0.832",,,,
"1739557833.279",,,,"109",,,
"1739557833.281",,,,,"-575",,
"1739557833.283",,,,,,"-821",
"1739557833.289","0.132",,,,,,
"1739557833.29",,"-0.532",,,,,
"1739557833.292",,,"-0.834",,,,
"1739557833.293",,,,"95",,,
"1739557833.295",,,,,"-590",,
"1739557833.297",,,,,,"-827",
"1739557833.304","0.121",,,,,,
"1739557833.305",,"-0.533",,,,,
"1739557833.307",,,"-0.837",,,,
"1739557833.308",,,,"62",,,
"1739557833.31",,,,,"-575",,
"1739557833.312",,,,,,"-852",
"1739557833.318","0.106",,,,,,
"1739557833.32",,"-0.532",,,,,
"1739557833.321",,,"-0.841",,,,
"1739557833.323",,,,"39",,,
"1739557833.324",,,,,"-556",,
"1739557833.326",,,,,,"-877",
"1739557833.332","0.092",,,,,,
"1739557833.334",,"-0.532",,,,,
"1739557833.335",,,"-0.843",,,,
"1739557833.337",,,,"14",,,
"1739557833.339",,,,,"-554",,
"1739557833.34",,,,,,"-892",
"1739557833.347","0.078",,,,,,
"1739557833.349",,"-0.529",,,,,
"1739557833.35",,,"-0.846",,,,
"1739557833.352",,,,"8",,,
"1739557833.354",,,,,"-551",,
"1739557833.355",,,,,,"-910",
"1739557833.363","0.069",,,,,,
"1739557833.364",,"-0.527",,,,,
"1739557833.366",,,"-0.849","22",,,
"1739557833.368",,,,,"-544",,
"1739557833.37",,,,,,"-900",
"1739557833.376","0.061",,,,,,
"1739557833.378",,"-0.524",,,,,
"1739557833.379",,,"-0.849",,,,
"1739557833.383",,,,"18","-546",,
"1739557833.384",,,,,,"-866",
"1739557833.392","0.053","-0.523",,,,,
"1739557833.395",,,"-0.85",,,,
"1739557833.396",,,,"13",,,
"1739557833.397",,,,,"-548",,
"1739557833.399",,,,,,"-850",
"1739557833.406","0.042",,,,,,
"1739557833.407",,"-0.52",,,,,
"1739557833.409",,,"-0.854",,,,
"1739557833.41",,,,"-10",,,
"1739557833.412",,,,,"-542",,
"1739557833.413",,,,,,"-868",
"1739557833.42","0.028",,,,,,
"1739557833.422",,"-0.515",,,,,
"1739557833.423",,,"-0.859",,,,
"1739557833.425",,,,"-25",,,
"1739557833.427",,,,,"-528",,
"1739557833.428",,,,,,"-868",
"1739557833.435","0.018",,,,,,
"1739557833.437",,"-0.506",,,,,
"1739557833.438",,,"-0.864",,,,
"1739557833.44",,,,"-14",,,
"1739557833.443",,,,,"-501","-872",
"1739557833.449","0.011",,,,,,
"1739557833.451",,"-0.5",,,,,
"1739557833.452",,,"-0.866",,,,
"1739557833.454",,,,"-7",,,
"1739557833.456",,,,,"-514",,
"1739557833.457",,,,,,"-874",
"1739557833.465","0.004",,,,,,
"1739557833.466",,"-0.499",,,,,
"1739557833.467",,,"-0.864",,,,
"1739557833.469",,,,"-31",,,
"1739557833.471",,,,,"-546",,
"1739557833.472",,,,,,"-857",
"1739557833.479","-0.003",,,,,,
"1739557833.481",,"-0.499",,,,,
"1739557833.482",,,"-0.861",,,,
"1739557833.483",,,,"-62",,,
"1739557833.485",,,,,"-551",,
"1739557833.487",,,,,,"-867",
"1739557833.493","-0.0014",,,,,,
"1739557833.495",,"-0.497",,,,,
"1739557833.496",,,"-0.86",,,,
"1739557833.498",,,,"-102",,,
"1739557833.499",,,,,"-534",,
"1739557833.501",,,,,,"-896",
"1739557833.509","-0.0026",,,,,,
"1739557833.51",,"-0.494",,,,,
"1739557833.512",,,"-0.862",,,,
"1739557833.514",,,,"-100",,,
"1739557833.515",,,,,"-508",,
"1739557833.517",,,,,,"-916",
"1739557833.523","-0.0036",,,,,,
"1739557833.525",,"-0.492",,,,,
"1739557833.526",,,"-0.868",,,,
"1739557833.528",,,,"-81",,,
"1739557833.53",,,,,"-526",,
"1739557833.531",,,,,,"-931",
"1739557833.538","-0.0048",,,,,,
"1739557833.539",,"-0.491",,,,,
"1739557833.541",,,"-0.876",,,,
"1739557833.543",,,,"-102",,,
"1739557833.544",,,,,"-544",,
"1739557833.547",,,,,,"-933",
"1739557833.553","-0.006",,,,,,
"1739557833.554",,"-0.492",,,,,
"1739557833.556",,,"-0.883",,,,
"1739557833.558",,,,"-134",,,
"1739557833.559",,,,,"-547",,
"1739557833.561",,,,,,"-931",
"1739557833.567","-0.0071",,,,,,
"1739557833.57",,"-0.465",,,,,
"1739557833.571",,,"-0.885",,,,
"1739557833.572",,,,"-139",,,
"1739557833.574",,,,,"-262",,
"1739557833.576",,,,,,"-896",
"1739557833.583","-0.0083",,,,,,
"1739557833.584",,"-0.461",,,,,
"1739557833.586",,,"-0.884",,,,
"1739557833.587",,,,"-130",,,
"1739557833.589",,,,,"-462",,
"1739557833.591",,,,,,"-861",
"1739557833.598","-0.0096",,,,,,
"1739557833.599",,"-0.454",,,,,
"1739557833.601",,,"-0.879",,,,
"1739557833.603",,,,"-141",,,
"1739557833.605",,,,,"-441",,
"1739557833.606",,,,,,"-821",
"1739557833.612","-0.111",,,,,,
"1739557833.614",,"-0.443",,,,,
"1739557833.615",,,"-0.876",,,,
"1739557833.617",,,,"-176",,,
"1739557833.619",,,,,"-441",,
"1739557833.621",,,,,,"-826",
"1739557833.627","-0.124",,,,,,
"1739557833.629",,"-0.432",,,,,
"1739557833.63",,,"-0.875",,,,
"1739557833.632",,,,"-193",,,
"1739557833.634",,,,,"-439",,
"1739557833.636",,,,,,"-854",
"1739557833.642","-0.133",,,,,,
"1739557833.644",,"-0.424",,,,,
"1739557833.645",,,"-0.874",,,,
"1739557833.647",,,,"-191",,,
"1739557833.649",,,,,"-455",,
"1739557833.65",,,,,,"-893",
"1739557833.656","-0.143",,,,,,
"1739557833.658",,"-0.419",,,,,
"1739557833.66",,,"-0.875",,,,
"1739557833.661",,,,"-205",,,
"1739557833.663",,,,,"-451",,
"1739557833.665",,,,,,"-927",
"1739557833.672","-0.16",,,,,,
"1739557833.673",,"-0.406",,,,,
"1739557833.675",,,"-0.876",,,,
"1739557833.677",,,,"-243",,,
"1739557833.679",,,,,"-405",,
"1739557833.68",,,,,,"-941",
"1739557833.686","-0.175",,,,,,
"1739557833.688",,"-0.391",,,,,
"1739557833.689",,,"-0.874",,,,
"1739557833.691",,,,"-260",,,
"1739557833.693",,,,,"-388",,
"1739557833.695",,,,,,"-909",
"1739557833.701","-0.188",,,,,,
"1739557833.702",,"-0.376",,,,,
"1739557833.704",,,"-0.867",,,,
"1739557833.706",,,,"-265",,,
"1739557833.707",,,,,"-394",,
"1739557833.709",,,,,,"-865",
"1739557833.717","-0.202",,,,,,
"1739557833.719",,"-0.389","-0.863",,,,
"1739557833.721",,,,"-275",,,
"1739557833.723",,,,,"-396",,
"1739557833.725",,,,,,"-854",
"1739557833.731","-0.22",,,,,,
"1739557833.732",,"-0.379",,,,,
"1739557833.734",,,"-0.864",,,,
"1739557833.735",,,,"-306",,,
"1739557833.737",,,,,"-367",,
"1739557833.739",,,,,,"-865",
"1739557833.745","-0.235",,,,,,
"1739557833.746",,"-0.372",,,,,
"1739557833.748",,,"-0.872",,,,
"1739557833.75",,,,"-291",,,
"1739557833.752",,,,,"-368",,
"1739557833.753",,,,,,"-907",
"1739557833.76","-0.244",,,,,,
"1739557833.762",,"-0.369",,,,,
"1739557833.763",,,"-0.879",,,,
"1739557833.765",,,,"-268",,,
"1739557833.767",,,,,"-405",,
"1739557833.769",,,,,,"-895",
"1739557833.775","-0.251",,,,,,
"1739557833.777",,"-0.363",,,,,
"1739557833.779",,,"-0.885",,,,
"1739557833.781",,,,"-266","-387",,
"1739557833.783",,,,,,"-915",
"1739557833.79","-0.262",,,,,,
"1739557833.791",,"-0.354",,,,,
"1739557833.793",,,"-0.89",,,,
"1739557833.795",,,,"-300",,,
"1739557833.796",,,,,"-365",,
"1739557833.798",,,,,,"-938",
"1739557833.805","-0.272",,,,,,
"1739557833.807",,"-0.345",,,,,
"1739557833.809",,,"-0.887",,,,
"1739557833.81",,,,"-307",,,
"1739557833.812",,,,,"-354",,
"1739557833.813",,,,,,"-901",
"1739557833.82","-0.28",,,,,,
"1739557833.822",,"-0.337",,,,,
"1739557833.823",,,"-0.879",,,,
"1739557833.826",,,,"-318","-328",,
"1739557833.828",,,,,,"-858",
"1739557833.834","-0.288",,,,,,
"1739557833.836",,"-0.329",,,,,
"1739557833.837",,,"-0.871",,,,
"1739557833.839",,,,"-338",,,
"1739557833.841",,,,,"-304",,
"1739557833.842",,,,,,"-829",
"1739557833.85","-0.297",,,,,,
"1739557833.851",,"-0.322",,,,,
"1739557833.853",,,"-0.867",,,,
"1739557833.855",,,,"-363",,,
"1739557833.856",,,,,"-333",,
"1739557833.858",,,,,,"-831",
"1739557833.864","-0.308",,,,,,
"1739557833.866",,"-0.314",,,,,
"1739557833.867",,,"-0.865",,,,
"1739557833.869",,,,"-386",,,
"1739557833.871",,,,,"-314",,
"1739557833.872",,,,,,"-833",
"1739557833.878","-0.316",,,,,,
"1739557833.88",,"-0.309",,,,,
"1739557833.881",,,"-0.864",,,,
"1739557833.883",,,,"-381",,,
"1739557833.885",,,,,"-311",,
"1739557833.887",,,,,,"-855",
"1739557833.893","-0.327",,,,,,
"1739557833.895",,"-0.303",,,,,
"1739557833.896",,,"-0.86",,,,
"1739557833.898",,,,"-403",,,
"1739557833.9",,,,,"-313",,
"1739557833.901",,,,,,"-860",
"1739557833.907","-0.341",,,,,,
"1739557833.909",,"-0.294",,,,,
"1739557833.911",,,"-0.857",,,,
"1739557833.912",,,,"-407",,,
"1739557833.914",,,,,"-312",,
"1739557833.916",,,,,,"-866",
"1739557833.923","-0.354",,,,,,
"1739557833.924",,"-0.285",,,,,
"1739557833.926",,,"-0.854",,,,
"1739557833.927",,,,"-398",,,
"1739557833.929",,,,,"-301",,
"1739557833.931",,,,,,"-885",
"1739557833.937","-0.365",,,,,,
"1739557833.939",,"-0.278",,,,,
"1739557833.94",,,"-0.851",,,,
"1739557833.942",,,,"-405",,,
"1739557833.944",,,,,"-289",,
"1739557833.946",,,,,,"-913",
"1739557833.952","-0.374",,,,,,
"1739557833.953",,"-0.27",,,,,
"1739557833.955",,,"-0.853",,,,
"1739557833.957",,,,"-395",,,
"1739557833.958",,,,,"-276",,
"1739557833.96",,,,,,"-920",
"1739557833.967","-0.377",,,,,,
"1739557833.968",,"-0.266",,,,,
"1739557833.97",,,"-0.853",,,,
"1739557833.972",,,,"-353",,,
"1739557833.973",,,,,"-288",,
"1739557833.975",,,,,,"-858",
"1739557833.982","-0.379",,,,,,
"1739557833.983",,"-0.268",,,,,
"1739557833.986",,,"-0.85","-354",,,
"1739557833.988",,,,,"-322",,
"1739557833.99",,,,,,"-797",
"1739557833.996","-0.382",,,,,,
"1739557833.998",,"-0.265",,,,,
"1739557833.999",,,"-0.847",,,,
"1739557834.001",,,,"-392",,,
"1739557834.003",,,,,"-302",,
"1739557834.005",,,,,,"-806",
"1739557834.011","-0.386",,,,,,
"1739557834.013",,"-0.258",,,,,
"1739557834.015",,,"-0.854",,,,
"1739557834.016",,,,"-433",,,
"1739557834.018",,,,,"-244",,
"1739557834.02",,,,,,"-897",
"1739557834.026","-0.393",,,,,,
"1739557834.027",,"-0.251",,,,,
"1739557834.029",,,"-0.86",,,,
"1739557834.031",,,,"-444",,,
"1739557834.032",,,,,"-245",,
"1739557834.034",,,,,,"-919",
"1739557834.04","-0.397",,,,,,
"1739557834.043",,"-0.245",,,,,
"1739557834.044",,,"-0.865",,,,
"1739557834.045",,,,"-449",,,
"1739557834.047",,,,,"-253",,
"1739557834.049",,,,,,"-911",
"1739557834.056","-0.402",,,,,,
"1739557834.058",,"-0.239",,,,,
"1739557834.059",,,"-0.869",,,,
"1739557834.061",,,,"-456",,,
"1739557834.062",,,,,"-255",,
"1739557834.064",,,,,,"-900",
"1739557834.07","-0.407",,,,,,
"1739557834.072",,"-0.236",,,,,
"1739557834.073",,,"-0.871",,,,
"1739557834.075",,,,"-446",,,
"1739557834.077",,,,,"-269",,
"1739557834.078",,,,,,"-905",
"1739557834.085","-0.409",,,,,,
"1739557834.086",,"-0.23",,,,,
"1739557834.088",,,"-0.872",,,,
"1739557834.09",,,,"-430",,,
"1739557834.091",,,,,"-232",,
"1739557834.093",,,,,,"-930",
"1739557834.099","-0.415",,,,,,
"1739557834.101",,"-0.226",,,,,
"1739557834.102",,,"-0.867",,,,
"1739557834.104",,,,"-447",,,
"1739557834.106",,,,,"-228",,
"1739557834.107",,,,,,"-865",
"1739557834.113","-0.427",,,,,,
"1739557834.115",,"-0.221",,,,,
"1739557834.117",,,"-0.867",,,,
"1739557834.118",,,,"-481",,,
"1739557834.12",,,,,"-242",,
"1739557834.122",,,,,,"-861",
"1739557834.129","-0.442",,,,,,
"1739557834.13",,"-0.209",,,,,
"1739557834.132",,,"-0.876",,,,
"1739557834.134",,,,"-504",,,
"1739557834.135",,,,,"-199",,
"1739557834.137",,,,,,"-885",
"1739557834.143","-0.455",,,,,,
"1739557834.145",,"-0.198",,,,,
"1739557834.146",,,"-0.882",,,,
"1739557834.148",,,,"-521",,,
"1739557834.15",,,,,"-191",,
"1739557834.152",,,,,,"-864",
"1739557834.158","-0.463",,,,,,
"1739557834.16",,"-0.193",,,,,
"1739557834.162",,,"-0.881",,,,
"1739557834.163",,,,"-509",,,
"1739557834.165",,,,,"-201",,
"1739557834.167",,,,,,"-887",
"1739557834.173","-0.468",,,,,,
"1739557834.175",,"-0.186",,,,,
"1739557834.176",,,"-0.884",,,,
"1739557834.178",,,,"-498",,,
"1739557834.18",,,,,"-169",,
"1739557834.181",,,,,,"-947",
"1739557834.188","-0.472",,,,,,
"1739557834.189",,"-0.176",,,,,
"1739557834.191",,,"-0.889",,,,
"1739557834.193",,,,"-490",,,
"1739557834.194",,,,,"-158",,
"1739557834.196",,,,,,"-960",
"1739557834.203","-0.474",,,,,,
"1739557834.205",,"-0.166",,,,,
"1739557834.206",,,"-0.89",,,,
"1739557834.208",,,,"-476",,,
"1739557834.21",,,,,"-149",,
"1739557834.211",,,,,,"-915",
"1739557834.219","-0.476",,,,,,
"1739557834.22",,"-0.153",,,,,
"1739557834.221",,,"-0.886",,,,
"1739557834.223",,,,"-464",,,
"1739557834.225",,,,,"-144",,
"1739557834.227",,,,,,"-868",
"1739557834.233","-0.48",,,,,,
"1739557834.234",,"-0.143",,,,,
"1739557834.237",,,"-0.878",,,,
"1739557834.238",,,,"-468",,,
"1739557834.239",,,,,"-132",,
"1739557834.242",,,,,,"-844",
"1739557834.248","-0.512",,,,,,
"1739557834.249",,"-0.146",,,,,
"1739557834.252",,,"-0.876",,,,
"1739557834.253",,,,"-767",,,
"1739557834.254",,,,,"-256",,
"1739557834.256",,,,,,"-850",
"1739557834.262","-0.514",,,,,,
"1739557834.264",,"-0.131",,,,,
"1739557834.267",,,"-0.879","-500",,,
"1739557834.269",,,,,"-92",,
"1739557834.271",,,,,,"-887",
"1739557834.278","-0.513",,,,,,
"1739557834.279",,"-0.126",,,,,
"1739557834.281",,,"-0.882",,,,
"1739557834.282",,,,"-500",,,
"1739557834.283",,,,,"-148",,
"1739557834.285",,,,,,"-918",
"1739557834.293","-0.511",,,,,,
"1739557834.295",,"-0.115",,,,,
"1739557834.296",,,"-0.887",,,,
"1739557834.297",,,,"-492",,,
"1739557834.299",,,,,"-87",,
"1739557834.301",,,,,,"-914",
"1739557834.307","-0.508",,,,,,
"1739557834.308",,"-0.107",,,,,
"1739557834.31",,,"-0.888",,,,
"1739557834.312",,,,"-482",,,
"1739557834.313",,,,,"-117",,
"1739557834.315",,,,,,"-896",
"1739557834.322","-0.504",,,,,,
"1739557834.323",,"-0.102",,,,,
"1739557834.325",,,"-0.873",,,,
"1739557834.327",,,,"-458",,,
"1739557834.328",,,,,"-124",,
"1739557834.33",,,,,,"-801",
"1739557834.345","-0.499","-0.0099",,,,,
"1739557834.346",,,"-0.855","-437","-120","-778",
"1739557834.352","-0.495",,,,,,
"1739557834.354",,"-0.0094",,,,,
"1739557834.355",,,"-0.844",,,,
"1739557834.357",,,,"-438",,,
"1739557834.359",,,,,"-106",,
"1739557834.36",,,,,,"-803",
"1739557834.367","-0.494",,,,,,
"1739557834.369",,"-0.0092",,,,,
"1739557834.37",,,"-0.844",,,,
"1739557834.372",,,,"-454",,,
"1739557834.375",,,,,"-121",,
"1739557834.376",,,,,,"-865",
"1739557834.383","-0.494",,,,,,
"1739557834.384",,"-0.0089",,,,,
"1739557834.387",,,"-0.847",,,,
"1739557834.388",,,,"-474",,,
"1739557834.39",,,,,"-104",,
"1739557834.391",,,,,,"-873",
"1739557834.397","-0.464",,,,,,
"1739557834.399",,"-0.0071",,,,,
"1739557834.4",,,"-0.843",,,,
"1739557834.402",,,,"-459",,,
"1739557834.404",,,,,"-75",,
"1739557834.406",,,,,,"-811",
"1739557834.412","-0.458",,,,,,
"1739557834.414",,"-0.0068",,,,,
"1739557834.417",,,"-0.827",,,,
"1739557834.418",,,,"-449",,,
"1739557834.42",,,,,"-60",,
"1739557834.422",,,,,,"-734",
"1739557834.429","-0.452",,,,,,
"1739557834.43",,"-0.0057",,,,,
"1739557834.431",,,"-0.808",,,,
"1739557834.433",,,,"-432",,,
"1739557834.434",,,,,"-35",,
"1739557834.436",,,,,,"-720",
"1739557834.442","-0.449",,,,,,
"1739557834.444",,"-0.0036",,,,,
"1739557834.445",,,"-0.819",,,,
"1739557834.447",,,,"-465",,,
"1739557834.449",,,,,"121",,
"1739557834.45",,,,,,"-1025",
"1739557834.457","-0.456",,,,,,
"1739557834.458",,"-0.008",,,,,
"1739557834.46",,,"-0.821",,,,
"1739557834.463",,,,"-553",,,
"1739557834.464",,,,,"160",,
"1739557834.466",,,,,,"-921",
"1739557834.471","-0.47",,,,,,
"1739557834.474",,"0.01",,,,,
"1739557834.475",,,"-0.831",,,,
"1739557834.476",,,,"-602",,,
"1739557834.478",,,,,"69",,
"1739557834.479",,,,,,"-901",
"1739557834.486","-0.482",,,,,,
"1739557834.487",,"0.026",,,,,
"1739557834.489",,,"-0.839",,,,
"1739557834.49",,,,"-556",,,
"1739557834.492",,,,,"35",,
"1739557834.494",,,,,,"-855",
"1739557834.501","-0.464",,,,,,
"1739557834.502",,"0.036",,,,,
"1739557834.504",,,"-0.848",,,,
"1739557834.505",,,,"-258",,,
"1739557834.507",,,,,"0",,
"1739557834.509",,,,,,"-889",
"1739557834.515","-0.466",,,,,,
"1739557834.517",,"0.05",,,,,
"1739557834.518",,,"-0.853",,,,
"1739557834.521",,,,"-471",,,
"1739557834.523",,,,,"16",,
"1739557834.524",,,,,,"-923",
"1739557834.53","-0.465",,,,,,
"1739557834.532",,"0.064",,,,,
"1739557834.534",,,"-0.854",,,,
"1739557834.535",,,,"-466",,,
"1739557834.536",,,,,"37",,
"1739557834.538",,,,,,"-879",
"1739557834.545","-0.468",,,,,,
"1739557834.546",,"0.074",,,,,
"1739557834.548",,,"-0.855",,,,
"1739557834.549",,,,"-490",,,
"1739557834.551",,,,,"28",,
"1739557834.553",,,,,,"-822",
"1739557834.559","-0.479",,,,,,
"1739557834.56",,"0.084",,,,,
"1739557834.562",,,"-0.862",,,,
"1739557834.563",,,,"-555",,,
"1739557834.565",,,,,"39",,
"1739557834.567",,,,,,"-800",
"1739557834.573","-0.495",,,,,,
"1739557834.575",,"0.096",,,,,
"1739557834.576",,,"-0.879",,,,
"1739557834.578",,,,"-593",,,
"1739557834.579",,,,,"78",,
"1739557834.581",,,,,,"-894",
"1739557834.588","-0.507",,,,,,
"1739557834.589",,"0.092",,,,,
"1739557834.591",,,"-0.867",,,,
"1739557834.593",,,,"-588",,,
"1739557834.594",,,,,"84",,
"1739557834.596",,,,,,"-909",
"1739557834.602","-0.508",,,,,,
"1739557834.603",,"0.083",,,,,
"1739557834.605",,,"-0.864",,,,
"1739557834.607",,,,"-558",,,
"1739557834.608",,,,,"71",,
"1739557834.61",,,,,,"-888",
"1739557834.616","-0.498",,,,,,
"1739557834.618",,"0.08",,,,,
"1739557834.619",,,"-0.859",,,,
"1739557834.621",,,,"-508",,,
"1739557834.623",,,,,"39",,
"1739557834.624",,,,,,"-854",
"1739557834.631","-0.492",,,,,,
"1739557834.632",,"0.08",,,,,
"1739557834.634",,,"-0.858",,,,
"1739557834.636",,,,"-487",,,
"1739557834.637",,,,,"39",,
"1739557834.639",,,,,,"-845",
"1739557834.645","-0.515",,,,,,
"1739557834.647",,"0.087",,,,,
"1739557834.649",,,"-0.855",,,,
"1739557834.65",,,,"-491",,,
"1739557834.652",,,,,"62",,
"1739557834.653",,,,,,"-858",
"1739557834.66","-0.518",,,,,,
"1739557834.661",,"0.096",,,,,
"1739557834.663",,,"-0.851",,,,
"1739557834.664",,,,"-507",,,
"1739557834.666",,,,,"114",,
"1739557834.668",,,,,,"-882",
"1739557834.674","-0.521",,,,,,
"1739557834.675",,"0.105",,,,,
"1739557834.677",,,"-0.853",,,,
"1739557834.679",,,,"-487",,,
"1739557834.68",,,,,"122",,
"1739557834.683",,,,,,"-898",
"1739557834.688","-0.518",,,,,,
"1739557834.69",,"0.115",,,,,
"1739557834.691",,,"-0.856",,,,
"1739557834.693",,,,"-463",,,
"1739557834.695",,,,,"129",,
"1739557834.697",,,,,,"-849",
"1739557834.703","-0.509",,,,,,
"1739557834.705",,"0.129",,,,,
"1739557834.706",,,"-0.864",,,,
"1739557834.708",,,,"-468",,,
"1739557834.71",,,,,"175",,
"1739557834.711",,,,,,"-878",
"1739557834.717","-0.496",,,,,,
"1739557834.719",,"0.138",,,,,
"1739557834.72",,,"-0.864",,,,
"1739557834.722",,,,"-465",,,
"1739557834.724",,,,,"175",,
"1739557834.725",,,,,,"-897",
"1739557834.732","-0.48",,,,,,
"1739557834.733",,"0.147",,,,,
"1739557834.735",,,"-0.855",,,,
"1739557834.736",,,,"-428",,,
"1739557834.738",,,,,"172",,
"1739557834.74",,,,,,"-817",
"1739557834.746","-0.471",,,,,,
"1739557834.748",,"0.155",,,,,
"1739557834.749",,,"-0.868",,,,
"1739557834.751",,,,"-468",,,
"1739557834.753",,,,,"150",,
"1739557834.755",,,,,,"-1019",
"1739557834.761","-0.468",,,,,,
"1739557834.762",,"0.17",,,,,
"1739557834.764",,,"-0.866",,,,
"1739557834.766",,,,"-479",,,
"1739557834.767",,,,,"193",,
"1739557834.769",,,,,,"-835",
"1739557834.776","-0.469",,,,,,
"1739557834.779",,"0.193","-0.871",,,,
"1739557834.781",,,,"-495",,,
"1739557834.782",,,,,"266",,
"1739557834.784",,,,,,"-891",
"1739557834.791","-0.472",,,,,,
"1739557834.792",,"0.215",,,,,
"1739557834.794",,,"-0.873",,,,
"1739557834.796",,,,"-520",,,
"1739557834.797",,,,,"286",,
"1739557834.799",,,,,,"-885",
"1739557834.805","-0.473",,,,,,
"1739557834.807",,"0.23",,,,,
"1739557834.808",,,"-0.872",,,,
"1739557834.809",,,,"-512",,,
"1739557834.811",,,,,"260",,
"1739557834.813",,,,,,"-867",
"1739557834.82","-0.472",,,,,,
"1739557834.821",,"0.239",,,,,
"1739557834.823",,,"-0.864",,,,
"1739557834.824",,,,"-483",,,
"1739557834.826",,,,,"214",,
"1739557834.828",,,,,,"-823",
"1739557834.834","-0.473",,,,,,
"1739557834.835",,"0.247",,,,,
"1739557834.837",,,"-0.86",,,,
"1739557834.839",,,,"-473",,,
"1739557834.841",,,,,"204",,
"1739557834.842",,,,,,"-808",
"1739557834.848","-0.471",,,,,,
"1739557834.85",,"0.251",,,,,
"1739557834.851",,,"-0.855",,,,
"1739557834.853",,,,"-445",,,
"1739557834.855",,,,,"221",,
"1739557834.856",,,,,,"-825",
"1739557834.864","-0.468",,,,,,
"1739557834.865",,"0.257",,,,,
"1739557834.867",,,"-0.846",,,,
"1739557834.868",,,,"-432",,,
"1739557834.871",,,,,"233",,
"1739557834.872",,,,,,"-808",
"1739557834.878","-0.47",,,,,,
"1739557834.879",,"0.261",,,,,
"1739557834.881",,,"-0.843",,,,
"1739557834.883",,,,"-455",,,
"1739557834.884",,,,,"209",,
"1739557834.886",,,,,,"-787",
"1739557834.892","-0.477",,,,,,
"1739557834.894",,"0.267",,,,,
"1739557834.895",,,"-0.822",,,,
"1739557834.897",,,,"-532",,,
"1739557834.899",,,,,"212",,
"1739557834.9",,,,,,"-806",
"1739557834.908","-0.492","0.277",,,,,
"1739557834.911",,,"-0.819",,,,
"1739557834.913",,,,"-628","292",,
"1739557834.915",,,,,,"-813",
"1739557834.922","-0.504",,,,,,
"1739557834.923",,"0.284",,,,,
"1739557834.924",,,"-0.819",,,,
"1739557834.926",,,,"-620",,,
"1739557834.928",,,,,"338",,
"1739557834.93",,,,,,"-882",
"1739557834.937","-0.502",,,,,,
"1739557834.938",,"0.256",,,,,
"1739557834.94",,,"-0.821",,,,
"1739557834.941",,,,"-494",,,
"1739557834.943",,,,,"3",,
"1739557834.945",,,,,,"-906",
"1739557834.952","-0.491",,,,,,
"1739557834.954",,"0.249",,,,,
"1739557834.955",,,"-0.822",,,,
"1739557834.957",,,,"-405",,,
"1739557834.958",,,,,"189",,
"1739557834.96",,,,,,"-876",
"1739557834.966","-0.478",,,,,,
"1739557834.968",,"0.251",,,,,
"1739557834.969",,,"-0.828",,,,
"1739557834.971",,,,"-358",,,
"1739557834.973",,,,,"238",,
"1739557834.974",,,,,,"-889",
"1739557834.981","-0.474",,,,,,
"1739557834.982",,"0.264",,,,,
"1739557834.984",,,"-0.834",,,,
"1739557834.985",,,,"-426",,,
"1739557834.987",,,,,"336",,
"1739557834.989",,,,,,"-871",
"1739557834.995","-0.48",,,,,,
"1739557834.997",,"0.285",,,,,
"1739557834.998",,,"-0.84",,,,
"1739557835",,,,"-507",,,
"1739557835.002",,,,,"427",,
"1739557835.003",,,,,,"-878",
"1739557835.009","-0.486",,,,,,
"1739557835.011",,"0.3",,,,,
"1739557835.012",,,"-0.845",,,,
"1739557835.014",,,,"-490",,,
"1739557835.016",,,,,"388",,
"1739557835.018",,,,,,"-864",
"1739557835.025","-0.486",,,,,,
"1739557835.026",,"0.313",,,,,
"1739557835.028",,,"-0.844",,,,
"1739557835.029",,,,"-454",,,
"1739557835.031",,,,,"330",,
"1739557835.033",,,,,,"-774",
"1739557835.039","-0.48",,,,,,
"1739557835.042",,"0.321","-0.836",,,,
"1739557835.044",,,,"-475",,,
"1739557835.045",,,,,"295",,
"1739557835.047",,,,,,"-730",
"1739557835.054","-0.466",,,,,,
"1739557835.055",,"0.323",,,,,
"1739557835.057",,,"-0.826",,,,
"1739557835.059",,,,"-493",,,
"1739557835.06",,,,,"312",,
"1739557835.062",,,,,,"-713",
"1739557835.069","-0.451",,,,,,
"1739557835.07",,"0.327",,,,,
"1739557835.072",,,"-0.814",,,,
"1739557835.073",,,,"-466",,,
"1739557835.075",,,,,"379",,
"1739557835.077",,,,,,"-761",
"1739557835.083","-0.446",,,,,,
"1739557835.084",,"0.366",,,,,
"1739557835.086",,,"-0.804",,,,
"1739557835.088",,,,"-441",,,
"1739557835.089",,,,,"395",,
"1739557835.091",,,,,,"-806",
"1739557835.098","-0.45",,,,,,
"1739557835.099",,"0.384",,,,,
"1739557835.1",,,"-0.798",,,,
"1739557835.102",,,,"-444",,,
"1739557835.104",,,,,"364",,
"1739557835.105",,,,,,"-808",
"1739557835.112","-0.459",,,,,,
"1739557835.113",,"0.397",,,,,
"1739557835.115",,,"-0.787",,,,
"1739557835.116",,,,"-448",,,
"1739557835.118",,,,,"374",,
"1739557835.12",,,,,,"-781",
"1739557835.126","-0.462",,,,,,
"1739557835.128",,"0.394",,,,,
"1739557835.129",,,"-0.802",,,,
"1739557835.131",,,,"-465",,,
"1739557835.133",,,,,"302",,
"1739557835.135",,,,,,"-1023",
"1739557835.141","-0.458",,,,,,
"1739557835.142",,"0.383",,,,,
"1739557835.144",,,"-0.794",,,,
"1739557835.146",,,,"-467",,,
"1739557835.147",,,,,"316",,
"1739557835.149",,,,,,"-798",
"1739557835.155","-0.457",,,,,,
"1739557835.157",,"0.384",,,,,
"1739557835.158",,,"-0.79",,,,
"1739557835.16",,,,"-474",,,
"1739557835.162",,,,,"400",,
"1739557835.163",,,,,,"-824",
"1739557835.17","-0.46",,,,,,
"1739557835.172",,"0.402",,,,,
"1739557835.173",,,"-0.804",,,,
"1739557835.175",,,,"-482",,,
"1739557835.176",,,,,"510",,
"1739557835.178",,,,,,"-910",
"1739557835.186","-0.453",,,,,,
"1739557835.188",,"0.429","-0.811",,,,
"1739557835.19",,,,"-411",,,
"1739557835.192",,,,,"564",,
"1739557835.193",,,,,,"-804",
"1739557835.2","-0.447",,,,,,
"1739557835.201",,"0.434",,,,,
"1739557835.203",,,"-0.815",,,,
"1739557835.204",,,,"-428",,,
"1739557835.207",,,,,"363",,
"1739557835.208",,,,,,"-753",
"1739557835.214","-0.445",,,,,,
"1739557835.216",,"0.438",,,,,
"1739557835.217",,,"-0.808",,,,
"1739557835.219",,,,"-447",,,
"1739557835.221",,,,,"416",,
"1739557835.222",,,,,,"-694",
"1739557835.229","-0.449",,,,,,
"1739557835.231",,"0.436",,,,,
"1739557835.232",,,"-0.799",,,,
"1739557835.234",,,,"-479",,,
"1739557835.236",,,,,"375",,
"1739557835.237",,,,,,"-712",
"1739557835.244","-0.481",,,,,,
"1739557835.245",,"0.441",,,,,
"1739557835.247",,,"-0.79",,,,
"1739557835.248",,,,"-768",,,
"1739557835.25",,,,,"421",,
"1739557835.252",,,,,,"-715",
"1739557835.259","-0.485",,,,,,
"1739557835.26",,"0.447",,,,,
"1739557835.262",,,"-0.783",,,,
"1739557835.264",,,,"-487",,,
"1739557835.265",,,,,"428",,
"1739557835.268",,,,,,"-713",
"1739557835.274","-0.483",,,,,,
"1739557835.275",,"0.463",,,,,
"1739557835.276",,,"-0.752",,,,
"1739557835.278",,,,"-441",,,
"1739557835.28",,,,,"462",,
"1739557835.282",,,,,,"-718",
"1739557835.288","-0.48",,,,,,
"1739557835.289",,"0.479",,,,,
"1739557835.291",,,"-0.745",,,,
"1739557835.293",,,,"-444",,,
"1739557835.294",,,,,"480",,
"1739557835.296",,,,,,"-723",
"1739557835.303","-0.478",,,,,,
"1739557835.305",,"0.487",,,,,
"1739557835.306",,,"-0.737",,,,
"1739557835.308",,,,"-455",,,
"1739557835.309",,,,,"479",,
"1739557835.311",,,,,,"-743",
"1739557835.318","-0.476",,,,,,
"1739557835.319",,"0.482",,,,,
"1739557835.321",,,"-0.722",,,,
"1739557835.322",,,,"-458",,,
"1739557835.324",,,,,"463",,
"1739557835.326",,,,,,"-764",
"1739557835.332","-0.481",,,,,,
"1739557835.335",,"0.471",,,,,
