timestamp(ms),Mag_z,Accel_x,Accel_y,Accel_z,Mag_x,Mag_y,
"0","-96081.117188","0.036926","0.191248","0.924208","-6974.095703","3122.419922",
"0.049","41915.578125","0.026612","0.209029","0.900523","26761.146484","-2454.25",
"0.099","41798.140625","0.051367","0.247555","1.000197","26761.146484","-2411.02002",
"0.148","41210.921875","0.058587","0.283118","1.002171","27024.017578","-1676.109863",
"0.197","41093.46875","-0.004332","0.281142","0.667621","26980.205078","-1676.109863",
"0.247","37570.15625","0.051367","0.283118","0.990329","26498.271484","-1935.490234",
"0.297","37452.71875","0.05343","0.369061","0.985394","26498.271484","-1892.260254",
"0.347","36160.828125","0.042084","0.316705","0.972565","27286.888672","-897.969971",
"0.397","36043.390625","0.02558","0.319668","0.863022","27286.888672","-854.73999",
"0.447","33224.726562","0.050335","0.365109","0.884733","27286.888672","355.699951",
"0.496","33107.28125","0.05343","0.361158","0.9173","27286.888672","398.929932",
"0.545","32520.0625","0.037958","0.521189","0.939011","27812.634766","1652.599976",
"0.595","32402.617188","0.049304","0.370048","0.914339","27812.634766","1695.829956",
"0.645","30288.625","0.036926","0.541934","0.881772","27812.634766","2949.5",
"0.694","30171.1875","0.054461","0.45204","0.859074","27812.634766","2992.72998",
"0.744","25238.539062","0.040021","0.546873","0.861048","27812.634766","4981.310059",
"0.793","25121.09375","0.036926","0.536007","0.846245","27768.822266","4981.310059",
"0.842","23007.101562","0.077153","0.598242","0.812691","26761.146484","5240.689941",
"0.891","22889.65625","0.031769","0.59429","0.795914","26761.146484","5240.689941",
"0.941","17134.898438","0.10294","0.569594","0.68045","27812.634766","7531.879883",
"0.991","17017.453125","0.048272","0.736541","0.79098","27768.822266","7531.879883",
"1.041","9148.710938","0.076122","0.706905","0.689332","27024.017578","8828.779297",
"1.091","9031.265625","0.088499","0.781982","0.755452","27024.017578","8828.779297",
"1.141","1867.179688","0.142135","0.762225","0.600513","26980.205078","9606.919922",
"1.191","1749.734375","0.141104","0.721723","0.619264","25972.529297","9606.919922",
"1.241","-7645.78125","0.200928","0.858046","0.562025","25928.716797","9606.919922",
"1.292","-7763.226562","0.139041","0.716784","0.597553","25446.785156","10601.209961",
"1.343","-14927.3125","0.238061","0.932135","0.42485","25402.972656","10601.209961",
"1.394","-15044.757812","0.25147","0.809641","0.513668","23650.492188","11638.730469",
"1.445","-22208.84375","0.272099","0.928183","0.356755","23606.681641","11638.730469",
"1.496","-22326.28125","0.287571","0.986466","0.365637","23387.621094","11638.730469",
"1.546","-29490.367188","0.277256","0.888669","0.382414","23343.808594","11595.5",
"1.595","-29490.367188","0.291697","0.857058","0.207737","22073.261719","11119.969727",
"1.645","-29607.8125","0.294791","0.885706","0.293595","22029.449219","11119.969727",
"1.695","-39707.996094","0.29376","0.908426","0.107076","21810.388672","11638.730469",
"1.745","-39825.441406","0.283445","0.922256","0.511694","21766.576172","11638.730469",
"1.795","-44170.867188","0.261784","0.886694","0.137669","20802.712891","12157.490234",
"1.845","-44288.3125","0.307169","0.836313","0.079443","20802.712891","12114.259766",
"1.895","-53683.832031","0.322641","0.948928","0.065627","20802.712891","11379.349609",
"1.946","-53801.277344","0.338112","0.922256","-0.041942","20802.712891","11336.119141",
"1.997","-62374.6875","0.371119","0.936086","0.00148","21328.457031","11119.969727",
"2.047","-62492.132812","0.359773","0.864961","-0.07747","21284.644531","11076.740234",
"2.097","-74119.085938","0.38556","0.95288","-0.138656","20276.96875","9606.919922",
"2.148","-74236.53125","0.359773","0.773091","-0.33011","20276.96875","9563.689453",
"2.198","-82105.28125","0.373182","0.95288","-0.25412","20802.712891","7791.259766",
"2.247","-82222.726562","0.433007","0.838289","-0.439653","20802.712891","7748.029785",
"2.298","-89386.804688","0.415472","0.979551","-0.185039","20802.712891","4981.310059",
"2.349","-89504.25","0.380402","0.679245","-0.50676","20802.712891","4938.080078",
"2.399","-99486.992188","0.38556","0.899536","-0.421889","20802.712891","2171.359863",
"2.449","-99486.992188","0.395874","0.584412","-0.647883","20802.712891","2171.359863",
"2.5","-107590.625","0.403094","0.831374","-0.496891","20802.712891","-163.060059",
"2.551","-107590.625","0.359773","0.578485","-0.695253","20802.712891","-163.060059",
"2.601","-110409.28125","0.359773","0.83335","-0.552156","21810.388672","-3491.77002",
"2.651","-110409.28125","0.327798","0.398696","-0.825521","21810.388672","-3491.77002",
"2.701","-115576.820312","0.339144","0.830386","-0.602487","22599.005859","-5782.960449",
"2.752","-115576.820312","0.404126","0.265336","-0.795914","22599.005859","-5782.960449",
"2.803","-115576.820312","0.294791","0.645658","-0.818612","23124.748047","-8852.289062",
"2.855","-115576.820312","0.388654","0.329547","-0.716964","23124.748047","-8895.519531",
"2.906","-122153.6875","0.266942","0.489578","-0.826507","23650.492188","-13218.519531",
"2.956","-122036.242188","0.311294","0.313741","-1.001184","23650.492188","-13218.519531",
"3.008","-119922.25","0.233935","0.383878","-0.836376","25972.529297","-16806.609375",
"3.06","-119922.25","0.274162","0.263361","-0.949867","25972.529297","-16806.609375",
"3.112","-122858.34375","0.163796","0.136916","-0.842297","26235.400391","-19097.798828",
"3.163","-122740.90625","0.165859","0.233725","-0.913352","26235.400391","-19141.029297",
"3.214","-121449.015625","0.111191","0.216932","-0.946906","27812.634766","-23723.410156",
"3.266","-121449.015625","0.101908","0.177418","-0.977499","27812.634766","-23723.410156",
"3.317","-121449.015625","0.073027","0.137904","-0.989342","30397.541016","-26273.978516",
"3.368","-121331.578125","0.080248","0.124074","-1.056449","30397.541016","-26273.978516",
"3.42","-118512.921875","0.061681","0.111232","-0.952827","30397.541016","-27830.259766",
"3.471","-118512.921875","0.047241","0.108268","-1.041646","30397.541016","-27830.259766",
"3.522","-118512.921875","0.017329","0.225822","-1.04362","31711.900391","-28089.638672",
"3.572","-118395.476562","-0.072408","0.09839","-0.799862","31711.900391","-28089.638672",
"3.623","-117808.257812","-0.128107","0.116171","-1.006119","32237.646484","-28867.779297",
"3.674","-117808.257812","-0.144611","0.066779","-0.929142","32237.646484","-28867.779297",
"3.724","-117808.257812","-0.159051","0.088511","-0.958749","36136.910156","-29862.068359",
"3.775","-117808.257812","-0.15802","0.093451","-0.959736","36136.910156","-29862.068359",
"3.825","-117808.257812","-0.15802","0.028252","-0.99921","37407.460938","-30121.451172",
"3.875","-117690.8125","-0.156988","0.050973","-1.017961","37407.460938","-30121.451172",
"3.926","-116281.484375","-0.273543","0.127037","-0.979473","37670.332031","-31158.970703",
"3.977","-116164.039062","-0.30655","-0.209819","-0.915326","37670.332031","-31115.740234",
"4.028","-113345.382812","-0.319959","0.025289","-0.877825","39773.308594","-30899.587891",
"4.078","-113227.9375","-0.394224","-0.046824","-0.851179","39773.308594","-30899.587891",
"4.129","-110409.28125","-0.430325","-0.05769","-0.802822","40518.109375","-32455.869141",
"4.18","-110291.84375","-0.44786","-0.054727","-0.916313","40518.109375","-32455.869141",
"4.231","-108295.289062","-0.436514","-0.039909","-0.911379","43146.832031","-33709.542969",
"4.281","-108177.84375","-0.491181","-0.042873","-0.787032","43146.832031","-33709.542969",
"4.331","-106768.515625","-0.516968","-0.073496","-0.824534","43409.703125","-35006.441406",
"4.382","-106651.078125","-0.568541","-0.142645","-0.752492","43409.703125","-34963.210938",
"4.433","-104654.53125","-0.564415","-0.161415","-0.741636","44680.25","-34747.0625",
"4.484","-104537.085938","-0.600516","-0.121901","-0.729794","44680.25","-34747.0625",
"4.535","-98077.664062","-0.607736","-0.151536","-0.816639","45994.609375","-37038.25",
"4.585","-98077.664062","-0.567509","-0.174257","-0.768282","45994.609375","-37038.25",
"4.636","-98782.328125","-0.612893","-0.121901","-0.785059","46783.226562","-37557.011719",
"4.687","-98664.882812","-0.63146","-0.185123","-0.736702","46783.226562","-37557.011719",
"4.737","-95963.671875","-0.694379","-0.207844","-0.698214","47002.285156","-38853.910156",
"4.788","-95963.671875","-0.667561","-0.240443","-0.751505","47002.285156","-38810.679688",
"4.839","-95259.007812","-0.693347","-0.224637","-0.704135","47790.902344","-38075.769531",
"4.891","-95259.007812","-0.689221","-0.188087","-0.655778","47790.902344","-38075.769531",
"4.942","-92322.90625","-0.711913","-0.116961","-0.592618","47790.902344","-38075.769531",
"4.993","-92322.90625","-0.723259","-0.188087","-0.555117","47790.902344","-38032.542969",
"5.045","-90091.46875","-0.824342","-0.080411","-0.675516","48842.390625","-37557.011719",
"5.096","-90208.914062","-0.788241","-0.175244","-0.674529","48842.390625","-37513.78125",
"5.147","-91618.242188","-0.842909","-0.105107","-0.557091","50156.75","-36260.109375",
"5.197","-91618.242188","-0.798556","-0.17722","-0.579789","50156.75","-36216.882812",
"5.248","-90913.578125","-0.819185","-0.152524","-0.58571","51427.300781","-34747.0625",
"5.299","-90913.578125","-0.848066","-0.127828","-0.435705","51427.300781","-34747.0625",
"5.35","-86450.710938","-0.866632","-0.23254","-0.471233","51427.300781","-35525.199219",
"5.401","-86450.710938","-0.920268","-0.153512","-0.337018","51427.300781","-35525.199219",
"5.451","-83514.609375","-0.88623","-0.248345","-0.358729","53004.53125","-36778.871094",
"5.502","-83514.609375","-0.92852","-0.19105","-0.484062","53004.53125","-36735.640625",
"5.553","-81400.617188","-0.973904","-0.189074","-0.25116","53530.273438","-36260.109375",
"5.604","-81400.617188","-0.895513","-0.250321","-0.398204","53530.273438","-36260.109375",
"5.655","-76937.742188","-0.937803","-0.16339","-0.287674","54056.019531","-37297.632812",
"5.705","-76937.742188","-0.905828","-0.273042","-0.267936","54056.019531","-37297.632812",
"5.756","-73296.984375","-0.940897","-0.176232","-0.434718","54537.949219","-38335.152344",
"5.807","-73296.984375","-0.927488","-0.2602","-0.160367","54494.140625","-38335.152344",
"5.858","-68951.554688","-0.872821","-0.510125","0.17517","54275.078125","-39632.050781",
"5.908","-68834.109375","-0.956369","-0.395535","0.126813","54275.078125","-39632.050781",
"5.959","-53566.386719","-0.961527","-0.405413","-0.026152","55589.4375","-42182.621094",
"6.01","-53566.386719","-0.958432","-0.276005","0.092273","55589.4375","-42139.390625",
"6.061","-47106.96875","-0.917174","-0.379729","0.101155","56378.054688","-41923.242188",
"6.111","-47106.96875","-0.974936","-0.342191","0.146551","56334.242188","-41923.242188",
"6.161","-42644.097656","-0.903765","-0.391584","0.04589","55852.3125","-42182.621094",
"6.212","-42644.097656","-0.945023","-0.32441","0.144577","55852.3125","-42182.621094",
"6.262","-41234.769531","-0.940897","-0.38862","-0.043916","55852.3125","-42960.761719",
"6.313","-41234.769531","-0.90067","-0.512101","0.211685","55808.5","-42960.761719",
"6.363","-38298.667969","-0.929551","-0.43011","0.144577","55063.695312","-42960.761719",
"6.414","-38298.667969","-0.927488","-0.49432","0.081417","55019.882812","-42960.761719",
"6.465","-30312.476562","-0.866632","-0.458757","0.170236","54275.078125","-44733.191406",
"6.516","-30312.476562","-0.864569","-0.463697","0.179118","54231.265625","-44733.191406",
"6.567","-26554.265625","-0.917174","-0.436037","0.247212","54056.019531","-44733.191406",
"6.617","-26554.265625","-0.854255","-0.50321","0.307411","54056.019531","-44689.960938",
"6.668","-21504.179688","-0.890356","-0.418255","0.293595","54537.949219","-44473.8125",
"6.719","-21504.179688","-0.837751","-0.414304","0.450508","54494.140625","-44473.8125",
"6.77","-12695.875","-0.84394","-0.362936","0.406099","52741.660156","-44473.8125",
"6.82","-12695.875","-0.740794","-0.468636","0.548209","52741.660156","-44473.8125",
"6.871","-5414.351562","-0.8295","-0.193026","0.557091","54318.890625","-44473.8125",
"6.921","-5414.351562","-0.80165","-0.401462","0.533406","54275.078125","-44430.582031",
"6.972","5507.945312","-0.823311","-0.283908","0.71203","54275.078125","-43220.140625",
"7.022","5507.945312","-0.68097","-0.399486","0.634067","54275.078125","-43176.910156",
"7.072","12789.46875","-0.656215","-0.285884","0.750518","54537.949219","-42442",
"7.123","12789.46875","-0.654152","-0.304653","0.717951","54494.140625","-42398.769531",
"7.174","17252.34375","-0.755235","-0.249333","0.661699","52741.660156","-40626.339844",
"7.224","17252.34375","-0.676844","-0.254272","0.819599","52741.660156","-40626.339844",
"7.274","21597.773438","-0.646931","-0.150548","0.718938","53530.273438","-41145.101562",
"7.324","21597.773438","-0.557194","-0.318483","0.641962","53486.464844","-41101.871094",
"7.374","25238.539062","-0.602579","-0.252297","0.889667","52215.914062","-39848.199219",
"7.425","25238.539062","-0.449923","-0.284896","0.686371","52172.101562","-39848.199219",
"7.475","28174.632812","-0.456111","-0.421219","1.1729","50901.554688","-40107.582031",
"7.525","28174.632812","-0.39835","-0.119925","0.782098","50857.742188","-40064.351562",
"7.575","37687.59375","-0.406601","-0.150548","0.864996","48842.390625","-38075.769531",
"7.625","37687.59375","-0.525219","-0.356021","0.957762","48798.578125","-38032.542969",
"7.675","40506.25","-0.391129","-0.146597","0.866969","48316.648438","-37297.632812",
"7.726","40506.25","-0.414853","-0.254272","0.963683","48272.835938","-37297.632812",
"7.777","42737.6875","-0.344714","-0.24143","0.969604","46783.226562","-37297.632812",
"7.828","42737.6875","-0.381846","-0.185123","0.886707","46783.226562","-37297.632812",
"7.879","45673.796875","-0.287984","-0.205868","0.96467","47046.097656","-37816.390625",
"7.93","45673.796875","-0.34884","-0.193026","0.844271","47002.285156","-37816.390625",
"7.98","48609.890625","-0.508716","-0.189074","1.014014","45468.867188","-37816.390625",
"8.031","48609.890625","-0.279732","-0.183147","0.874864","45425.054688","-37816.390625",
"8.082","51546","-0.234348","-0.197965","1.072239","44154.507812","-37816.390625",
"8.133","51546","-0.233316","-0.198953","0.883746","44110.695312","-37773.160156",
"8.185","53659.984375","-0.213718","-0.184135","1.068292","43891.636719","-37038.25",
"8.236","53659.984375","-0.215781","-0.206856","0.939011","43847.824219","-37038.25",
"8.287","55891.421875","-0.161114","-0.184135","0.984407","43409.703125","-38075.769531",
"8.338","55891.421875","-0.142548","-0.209819","0.859074","43365.890625","-38075.769531",
"8.39","61058.953125","-0.054874","-0.284896","1.048554","41306.726562","-38075.769531",
"8.442","61058.953125","-0.079629","-0.185123","0.945919","41262.914062","-38075.769531",
"8.494","63172.953125","0.012171","-0.160427","1.015","39247.5625","-38335.152344",
"8.546","63172.953125","-0.040433","-0.221673","0.925195","39203.75","-38291.921875",
"8.597","68340.484375","0.008045","-0.161415","0.952827","38721.820312","-38075.769531",
"8.648","68340.484375","0.089531","-0.229576","0.98342","38678.007812","-38032.542969",
"8.699","70454.46875","0.088499","-0.181172","0.954801","37670.332031","-37297.632812",
"8.75","70454.46875","0.129758","-0.272054","1.04362","37626.519531","-37297.632812",
"8.801","71276.578125","0.138009","-0.162402","0.90151","36355.972656","-37816.390625",
"8.852","71276.578125","0.198865","-0.190062","1.025856","36312.160156","-37773.160156",
"8.903","78558.109375","0.177205","-0.169317","0.924208","34296.808594","-36043.960938",
"8.954","78558.109375","0.195771","-0.196977","0.989342","34252.996094","-36000.730469",
"9.004","81494.21875","0.214337","-0.198953","0.998224","30923.283203","-35784.582031",
"9.054","81494.21875","0.259722","-0.161415","0.891641","30879.474609","-35741.351562",
"9.104","85134.96875","0.205054","-0.228588","0.982434","28601.248047","-35525.199219",
"9.154","85134.96875","0.30098","-0.101156","0.900523","28557.435547","-35481.972656",
"9.204","88775.734375","0.305106","-0.158451","0.960722","26235.400391","-34228.300781",
"9.255","88775.734375","0.309232","-0.227601","1.004145","26191.587891","-34185.070312",
"9.306","90889.734375","0.291697","-0.194014","0.967631","24964.853516","-32931.402344",
"9.357","90889.734375","0.27313","-0.159439","0.855127","24921.041016","-32888.171875",
"9.407","94530.5","0.309232","-0.247358","0.926182","22336.132812","-31418.349609",
"9.457","94413.046875","0.354616","-0.173269","0.93309","22292.320312","-31375.119141",
"9.507","91007.171875","0.34327","-0.230564","0.890654","19488.353516","-29343.308594",
"9.557","90889.734375","0.366993","-0.181172","0.928156","19444.541016","-29300.080078",
"9.607","90889.734375","0.397937","-0.134743","0.881772","17954.933594","-28349.019531",
"9.657","90889.734375","0.406189","-0.160427","0.904471","17911.121094","-28305.789062",
"9.707","92416.5","0.438164","-0.216734","0.873877","16114.828125","-27311.5",
"9.758","92416.5","0.453636","-0.231552","0.881772","16071.017578","-27268.269531",
"9.809","93943.28125","0.453636","-0.240443","0.94888","14318.537109","-25020.308594",
"9.86","93825.828125","0.481485","-0.133755","0.778151","14274.724609","-24977.080078",
"9.911","93121.171875","0.495926","-0.257236","0.913352","13529.919922","-23204.648438",
"9.961","93121.171875","0.514492","-0.16833","0.799862","13486.109375","-23161.419922",
"10.012","94530.5","0.488706","-0.179196","0.827494","10682.140625","-22426.509766",
"10.063","94413.046875","0.573285","-0.066581","0.64887","10638.328125","-22383.279297",
"10.114","88071.078125","0.619701","-0.2602","0.864996","9367.78125","-21907.75",
"10.165","87953.625","0.637236","-0.16833","0.765321","9323.96875","-21864.519531",
"10.215","87248.96875","0.639299","-0.169317","0.678476","7045.744629","-18579.039062",
"10.266","87248.96875","0.657865","-0.104119","0.731767","7001.932129","-18535.808594",
"10.317","87366.40625","0.725941","-0.102144","0.701174","3628.408691","-16287.849609",
"10.367","87248.96875","0.728004","0.02924","0.670581","3628.408691","-16244.619141",
"10.417","82198.875","0.78164","-0.120913","0.669594","3628.408691","-12181",
"10.468","82081.4375","0.824961","-0.013237","0.636041","3584.596191","-12094.539062",
"10.518","77148.78125","0.828056","-0.03497","0.596566","1306.372559","-6820.47998",
"10.568","77031.34375","0.861062","0.018374","0.561038","1262.560059","-6734.02002",
"10.618","68340.484375","0.812584","0.010471","0.552156","-1015.663574","-897.969971",
"10.669","68223.046875","0.868283","0.062827","0.526498","-1059.475586","-854.73999",
"10.72","60354.296875","0.916761","0.103329","0.502813","-1804.279785","1911.979858",
"10.771","60236.84375","0.892006","0.10728","0.49097","-1848.091797","1955.209961",
"10.822","58122.859375","0.968334","0.166551","0.464324","-2067.151855","5240.689941",
"10.873","57887.96875","0.906447","0.147782","0.402151","-2110.963867","5283.919922",
"10.923","44969.125","0.967303","0.214956","0.408073","-2592.895996","9866.299805",
"10.974","44734.234375","0.883754","0.231749","0.366624","-2592.895996","9866.299805",
"11.025","32520.0625","0.973491","0.24064","0.406099","-2067.151855","12676.25",
"11.076","32285.179688","0.844559","0.321644","0.374519","-2067.151855","12676.25",
"11.127","19483.78125","0.919856","0.256446","0.305438","-227.047852","14708.060547",
"11.178","19366.335938","0.832182","0.443149","0.371558","-227.047852","14708.060547",
"11.228","11380.140625","0.852811","0.322632","0.36465","2620.731934","14967.439453",
"11.279","11262.703125","0.841465","0.38783","0.372545","2620.731934","14967.439453",
"11.33","5507.945312","0.833213","0.451052","0.343926","4942.768066","15226.820312",
"11.381","5390.5","0.849716","0.464882","0.325175","4942.768066","15226.820312",
"11.431","-246.8125","0.825993","0.519214","0.373532","7045.744629","16004.958984",
"11.482","-364.257812","0.779577","0.800751","0.338005","7045.744629","16004.958984",
"11.532","-6119.015625","0.820835","0.492542","0.291621","7527.67627","16783.099609",
"11.582","-6236.453125","0.805364","0.545886","0.28274","7527.67627","16783.099609",
"11.632","-7645.78125","0.827024","0.570582","0.256094","9630.652344","18036.769531",
"11.682","-7763.226562","0.769262","0.586387","0.306425","9630.652344","17993.539062",
"11.733","-14222.648438","0.888912","0.645658","0.197868","10901.201172","17777.390625",
"11.784","-14340.09375","0.846622","0.670355","0.198855","10901.201172","17777.390625",
"11.835","-22208.84375","0.708406","0.685172","0.179118","12215.560547","17777.390625",
"11.886","-22326.28125","0.637236","0.63578","0.213658","12215.560547","17777.390625",
"11.937","-33131.132812","0.624858","0.765188","0.154446","12215.560547","19074.289062",
"11.988","-33248.574219","0.607323","0.718759","0.135695","12215.560547","19031.060547",
"12.039","-44170.867188","0.591851","0.675294","0.074509","12741.304688","18036.769531",
"12.089","-44288.3125","0.599072","0.76914","0.123853","12741.304688","18036.769531",
"12.14","-47811.632812","0.683651","0.80569","0.043916","13267.048828","18555.529297",
"12.191","-47929.074219","0.666117","0.865949","0.122866","13267.048828","18512.298828",
"12.242","-50747.730469","0.649613","0.702954","0.046877","14537.597656","16523.720703",
"12.293","-50865.175781","0.593914","0.818532","0.053785","14537.597656","16480.490234",
"12.344","-52861.722656","0.565033","0.790872","0.036021","16114.828125","15226.820312",
"12.395","-52979.167969","0.547499","0.832362","0.097207","16114.828125","15183.589844",
"12.447","-54388.496094","0.515523","0.945965","0.173196","17692.060547","14967.439453",
"12.498","-54388.496094","0.461888","0.777042","0.069575","17692.060547","14924.208984",
"12.55","-53683.832031","0.420629","0.982515","0.239317","20276.96875","14708.060547",
"12.602","-53801.277344","0.344301","0.85607","0.188","20276.96875","14708.060547",
"12.653","-56502.488281","0.344301","0.983503","-0.023192","22861.876953","14708.060547",
"12.705","-56502.488281","0.29376","0.907439","0.212671","22861.876953","14708.060547",
"12.757","-53566.386719","0.271068","1.009187","0.130761","24439.109375","15486.199219",
"12.809","-53566.386719","0.255596","0.967697","0.138656","24439.109375","15486.199219",
"12.86","-52861.722656","0.173079","0.890645","0.114971","26498.271484","15486.199219",
"12.911","-52979.167969","0.230841","1.052652","0.101155","26498.271484","15442.970703",
"12.962","-55797.824219","0.141104","0.867925","0.051811","27549.759766","14448.679688",
"13.014","-55915.269531","0.100877","0.981527","0.098194","27549.759766","14405.449219",
"13.065","-56502.488281","0.175142","0.971649","0.144577","29083.181641","14189.298828",
"13.115","-56502.488281","0.135946","0.956831","0.019244","29083.181641","14189.298828",
"13.166","-56502.488281","0.078185","1.018078","0.130761","30660.412109","15226.820312",
"13.217","-56619.933594","0.090562","1.032895","-0.043916","30660.412109","15183.589844",
"13.268","-60965.359375","0.071996","0.997333","-0.028126","31974.771484","14967.439453",
"13.319","-61082.804688","0.057555","1.300603","-0.098194","31974.771484","14924.208984",
"13.37","-66015.453125","-0.007427","0.885706","-0.089312","32500.517578","14708.060547",
"13.421","-66132.898438","-0.077566","0.954855","-0.11201","32500.517578","14664.830078",
"13.472","-70360.882812","-0.009489","0.96177","-0.15642","34033.933594","13454.390625",
"13.523","-70478.328125","-0.057968","0.96177","-0.157406","34033.933594","13411.160156",
"13.574","-77759.851562","-0.102321","0.905463","-0.486036","36355.972656","10860.589844",
"13.625","-77877.296875","-0.07344","0.94794","-0.163328","36355.972656","10860.589844",
"13.676","-79169.179688","-0.147705","0.890645","-0.208724","37670.332031","10860.589844",
"13.727","-79286.625","-0.183806","0.902499","-0.255107","37670.332031","10817.359375",
"13.779","-82809.945312","-0.17968","0.950904","-0.257081","38984.691406","8569.400391",
"13.831","-82927.390625","-0.205467","0.803714","-0.305438","38984.691406","8526.169922",
"13.883","-87155.375","-0.140485","0.928183","-0.211685","40780.984375","8310.019531",
"13.935","-87272.8125","-0.317896","0.861997","-0.463338","40780.984375","8266.790039",
"13.986","-89386.804688","-0.192058","0.875827","-0.25116","42621.085938","5500.069824",
"14.037","-89504.25","-0.284889","0.942013","-0.410046","42621.085938","5456.839844",
"14.088","-93732.234375","-0.287984","0.797787","-0.356755","42883.960938","4721.929688",
"14.139","-93849.679688","-0.334399","0.814581","-0.444587","42883.960938","4678.699707",
"14.191","-96081.117188","-0.368437","0.776055","-0.324188","44417.378906","2949.5",
"14.244","-98782.328125","-0.360186","0.760249","-0.37748","44417.378906","615.079834",
"14.295","-98664.882812","-0.456111","0.780006","-0.517616","45731.738281","615.079834",
"14.346","-97373","-0.432388","0.689124","-0.464324","47046.097656","-1416.72998",
"14.397","-97373","-0.479835","0.6585","-0.559064","47046.097656","-1459.959961",
"14.449","-105359.195312","-0.484992","0.768152","-0.540314","49631.007812","-7814.77002",
"14.501","-105359.195312","-0.612893","0.411538","-0.697227","49631.007812","-7857.999512",
"14.553","-108295.289062","-0.584012","0.43821","-0.619264","50901.554688","-14990.949219",
"14.605","-108295.289062","-0.577824","0.361158","-0.661699","50901.554688","-14990.949219",
"14.656","-108999.953125","-0.611862","0.313741","-0.730781","51690.171875","-18838.419922",
"14.707","-108882.515625","-0.665498","0.137904","-0.635054","51646.359375","-18838.419922",
"14.759","-108295.289062","-0.711913","0.537983","-0.690319","50901.554688","-21172.839844",
"14.811","-108177.84375","-0.661372","0.545886","-0.827494","50901.554688","-21172.839844",
"14.862","-107590.625","-0.685095","0.135928","-0.64887","51164.425781","-23982.789062",
"14.913","-107473.1875","-0.658277","0.080609","-0.629133","51164.425781","-23982.789062",
"14.964","-102423.09375","-0.715008","0.033192","-0.720912","51427.300781","-26533.359375",
"15.015","-102305.648438","-0.704693","0.104317","-0.68045","51383.488281","-26533.359375",
"15.066","-101718.429688","-0.734605","0.067766","-0.744597","50901.554688","-28867.779297",
"15.118","-101600.984375","-0.676844","0.063815","-0.607421","50901.554688","-28867.779297",
"15.169","-99486.992188","-0.756266","-0.001383","-0.801836","52215.914062","-30121.451172",
"15.22","-99369.546875","-0.700567","0.019362","-0.613343","52172.101562","-30121.451172",
"15.271","-96668.335938","-0.517999","-0.159439","-0.679463","51953.042969","-32672.017578",
"15.322","-96668.335938","-0.739763","0.039119","-0.641962","51909.230469","-32672.017578",
"15.373","-93732.234375","-0.699536","-0.207844","-0.607421","50901.554688","-34228.300781",
"15.425","-93732.234375","-0.750077","-0.197965","-0.638014","50857.742188","-34228.300781",
"15.477","-90091.46875","-0.778958","-0.322434","-0.6015","49893.878906","-36260.109375",
"15.528","-90208.914062","-0.736668","-0.302677","-0.582749","49850.066406","-36260.109375",
"15.579","-92322.90625","-0.761423","-0.302677","-0.550183","49368.136719","-39632.050781",
"15.63","-92322.90625","-0.722228","-0.281932","-0.599526","49324.324219","-39632.050781",
"15.681","-88682.140625","-0.514905","-0.479502","-0.561038","48316.648438","-40885.722656",
"15.731","-88682.140625","-0.710882","-0.442952","-0.507747","48272.835938","-40885.722656",
"15.782","-83514.609375","-0.740794","-0.396523","-0.619264","47046.097656","-43695.671875",
"15.833","-83514.609375","-0.708819","-0.556554","-0.461364","47002.285156","-43695.671875",
"15.884","-80578.507812","-0.732543","-0.330337","-0.47518","46783.226562","-44214.429688",
"15.935","-80578.507812","-0.707788","-0.60891","-0.486036","46739.414062","-44214.429688",
"15.986","-76937.742188","-0.585044","-0.659291","-0.136682","46520.355469","-46030.089844",
"16.037","-76937.742188","-0.698504","-0.594093","-0.479128","46476.542969","-46030.089844",
"16.089","-75528.414062","-0.666529","-0.556554","-0.454456","45205.996094","-46808.230469",
"16.141","-75528.414062","-0.69541","-0.606935","-0.530445","45162.183594","-46808.230469",
"16.193","-73296.984375","-0.665498","-0.596068","-0.409059","44680.25","-46808.230469",
"16.244","-73296.984375","-0.669623","-0.644473","-0.425836","44680.25","-46808.230469",
"16.295","-73296.984375","-0.689221","-0.618789","-0.445574","44943.125","-48061.902344",
"16.346","-73296.984375","-0.659309","-0.599032","-0.42485","44943.125","-48061.902344",
"16.397","-68951.554688","-0.636617","-0.671145","-0.428797","45205.996094","-48580.660156",
"16.448","-68951.554688","-0.679938","-0.738319","-0.230435","45162.183594","-48580.660156",
"16.499","-65310.789062","-0.656215","-0.676084","-0.306425","44943.125","-48840.039062",
"16.55","-65310.789062","-0.707788","-0.689914","-0.367611","44899.3125","-48840.039062",
"16.602","-63784.015625","-0.663435","-0.701768","-0.290635","44680.25","-49099.421875",
"16.653","-63784.015625","-0.726354","-0.962561","-0.264976","44680.25","-49099.421875",
"16.704","-59438.589844","-0.689221","-0.679048","-0.205763","44680.25","-49618.179688",
"16.755","-59438.589844","-0.689221","-0.699793","-0.146551","44636.4375","-49618.179688",
"16.806","-52861.722656","-0.734605","-0.718562","-0.081417","44154.507812","-50396.320312",
"16.858","-52861.722656","-0.686127","-0.71461","-0.076483","44154.507812","-50396.320312",
"16.909","-47811.632812","-0.675812","-0.671145","-0.115958","45205.996094","-50871.851562",
"16.96","-47811.632812","-0.798556","-0.716586","-0.074509","45162.183594","-50871.851562",
"17.011","-43348.761719","-0.685095","-0.693865","-0.11201","44417.378906","-51649.992188",
"17.061","-43348.761719","-0.720165","-0.690902","-0.024178","44417.378906","-51606.761719",
"17.112","-39003.332031","-0.682001","-0.702756","0.01431","45205.996094","-50612.472656",
"17.164","-39003.332031","-0.719134","-0.732392","0.057732","45162.183594","-50612.472656",
"17.215","-34657.902344","-0.70985","-0.738319","0.120892","44680.25","-50871.851562",
"17.265","-34657.902344","-0.685095","-0.721525","0.148525","44636.4375","-50871.851562",
"17.316","-27376.375","-0.682001","-0.733379","0.197868","44154.507812","-51390.609375",
"17.367","-27376.375","-0.68097","-0.699793","0.512681","44110.695312","-51347.382812",
"17.419","-19977.40625","-0.687158","-0.721525","0.328136","43891.636719","-50612.472656",
"17.47","-19977.40625","-0.668592","-0.717574","0.382414","43847.824219","-50569.242188",
"17.521","-11286.546875","-0.641774","-0.682011","0.365637","42883.960938","-49877.5625",
"17.572","-11286.546875","-0.654152","-0.686951","0.368598","42883.960938","-49877.5625",
"17.623","-6823.679688","-0.642806","-0.668181","0.401165","43628.761719","-50136.941406",
"17.675","-6823.679688","-0.648994","-0.663242","0.448534","43584.949219","-50093.710938",
"17.728","-1068.921875","-0.570603","-0.651388","0.481101","41832.472656","-49877.5625",
"17.779","-1068.921875","-0.553069","-0.60891","0.26695","41832.472656","-49834.332031",
"17.831","2571.84375","-0.598453","-0.640522","0.541301","42095.34375","-48840.039062",
"17.882","2571.84375","-0.581949","-0.611874","0.570907","42051.53125","-48796.8125",
"17.933","7034.71875","-0.585044","-0.582238","0.591631","41306.726562","-48580.660156",
"17.984","7034.71875","-0.553069","-0.567421","0.63308","41262.914062","-48537.429688",
"18.035","12789.46875","-0.540691","-0.550627","0.683411","41043.855469","-46808.230469",
"18.085","12789.46875","-0.523156","-0.547664","0.672555","41000.042969","-46765",
"18.135","17957.007812","-0.566478","-0.516053","0.722886","40518.109375","-46548.851562",
"18.186","17957.007812","-0.521093","-0.475551","0.726833","40518.109375","-46548.851562",
"18.238","21597.773438","-0.527282","-0.44394","0.756439","41306.726562","-46808.230469",
"18.289","21597.773438","-0.487055","-0.428134","0.733741","41262.914062","-46765",
"18.339","29701.40625","-0.459206","-0.406401","0.827494","40255.238281","-43695.671875",
"18.39","29701.40625","-0.434451","-0.349106","0.83835","40211.425781","-43652.441406",
"18.442","31110.734375","-0.426199","-0.321446","0.872891","39773.308594","-42442",
"18.495","31110.734375","-0.384941","-0.297738","0.881772","39729.496094","-42398.769531",
"18.545","36982.9375","-0.360186","-0.307616","0.915326","39247.5625","-40885.722656",
"18.595","36982.9375","-0.358123","-0.305641","0.795914","39203.75","-40842.492188",
"18.646","44264.46875","-0.325116","-0.230564","0.859074","37670.332031","-38853.910156",
"18.697","44264.46875","-0.248788","-0.136718","1.045594","37626.519531","-38853.910156",
"18.748","44264.46875","-0.196184","-0.130791","1.016974","36618.84375","-38853.910156",
"18.798","44264.46875","-0.237442","-0.120913","0.94888","36575.03125","-38810.679688",
"18.849","51546","-0.241568","0.038131","0.951841","36136.910156","-36260.109375",
"18.9","51546","-0.21475","-0.205868","0.934077","36093.097656","-36216.882812",
"18.951","53777.421875","-0.166271","-0.129803","0.914339","34822.550781","-35265.820312",
"19.002","53777.421875","-0.141516","-0.145609","1.089016","34778.738281","-35222.589844",
"19.053","53777.421875","-0.136359","-0.159439","0.951841","33245.320312","-35006.441406",
"19.104","53777.421875","-0.11573","-0.185123","1.003158","33201.507812","-34963.210938",
"19.155","54482.09375","-0.095101","-0.195001","0.966644","32719.576172","-34487.679688",
"19.206","54482.09375","0.02558","0.064803","0.947893","32675.763672","-34487.679688",
"19.257","55891.421875","-0.068283","-0.312556","1.03079","31974.771484","-35784.582031",
"19.309","55891.421875","-0.046622","-0.161415","0.774203","31930.962891","-35741.351562",
"19.36","56713.53125","-0.03115","-0.150548","0.969604","30397.541016","-35006.441406",
"19.411","56596.078125","-0.021867","-0.171293","0.963683","30353.728516","-35006.441406",
"19.462","56596.078125","0.031769","-0.080411","0.942959","30134.669922","-35525.199219",
"19.513","56596.078125","0.041052","-0.178208","0.982434","30090.857422","-35481.972656",
"19.564","62468.28125","0.092625","-0.093253","0.916313","28338.376953","-33450.160156",
"19.615","62468.28125","0.14523","-0.102144","1.050528","28294.564453","-33406.929688",
"19.666","63995.0625","0.156576","-0.118937","0.876838","26235.400391","-32715.248047",
"19.717","63995.0625","0.229809","-0.005334","1.039672","26191.587891","-32672.017578",
"19.767","66931.15625","0.242187","-0.002371","1.014014","24964.853516","-30899.587891",
"19.818","66931.15625","0.198865","-0.032994","0.837363","24921.041016","-30856.357422",
"19.869","72803.359375","0.375245","0.090487","1.085069","23387.621094","-28867.779297",
"19.92","72803.359375","0.348427","0.002568","0.872891","23343.808594","-28824.548828",
"19.972","77148.78125","0.395874","0.060852","0.98342","21328.457031","-25755.21875",
"20.023","77148.78125","0.441258","0.080609","0.865982","21284.644531","-25711.990234",
"20.075","77148.78125","0.398969","0.010471","0.848219","21065.583984","-25495.839844",
"20.126","77148.78125","0.546467","0.155685","0.953814","21021.773438","-25452.609375",
"20.177","80789.546875","0.450542","0.063815","0.823547","19488.353516","-23464.029297",
"20.228","80789.546875","0.556782","0.14877","0.846245","19444.541016","-23420.798828",
"20.279","84430.3125","0.539247","0.113208","0.870917","16377.701172","-19875.939453",
"20.33","84430.3125","0.587726","0.160624","0.740649","16333.888672","-19832.708984",
"20.38","88893.1875","0.637236","0.21298","0.834402","14318.537109","-17065.990234",
"20.431","88775.734375","0.664054","0.128025","0.690319","14274.724609","-17022.759766",
"20.483","88071.078125","0.6754","0.187296","0.767295","10682.140625","-15250.330078",
"20.535","88071.078125","0.693966","0.21792","0.683411","10638.328125","-15207.099609",
"20.586","88775.734375","0.686746","0.266324","0.698214","6782.872559","-11402.859375",
"20.637","88658.296875","0.734193","0.244592","0.710056","6695.248535","-11316.400391",
"20.688","85839.640625","0.762042","0.290033","0.583736","1832.116699","-5004.819824",
"20.739","85722.203125","0.72491","0.276203","0.609395","1788.304199","-4918.359863",
"20.79","77148.78125","0.768231","0.319668","0.69624","-1278.535645","-163.060059",
"20.84","77031.34375","0.719752","0.331522","0.492944","-1322.347656","-119.830078",
"20.891","71981.25","0.741413","0.349304","0.507747","-4126.31543","3165.649902",
"20.942","71863.796875","0.841465","0.375975","0.618277","-4170.12793","3165.649902",
"20.993","62468.28125","0.748633","0.366097","0.437679","-5966.419922","5240.689941",
"21.043","62233.390625","0.817741","0.405611","0.524524","-6010.231934","5283.919922",
"21.094","50136.671875","0.807427","0.449076","0.457416","-6229.291992","9606.919922",
"21.145","49901.78125","1.07148","0.468833","0.39327","-6273.103516","9606.919922",
"21.196","34751.5","0.827024","0.511311","0.432745","-8814.200195","12935.628906",
"21.247","34516.609375","0.761011","0.482663","0.440639","-8814.200195","12935.628906",
"21.298","19483.78125","0.785766","0.471797","0.256094","-9602.816406","14448.679688",
"21.348","19366.335938","0.78164","0.520202","0.435705","-9559.003906","14448.679688",
"21.399","9148.710938","0.811552","0.50736","0.370571","-9077.072266","14708.060547",
"21.45","9031.265625","0.787829","0.593302","0.398204","-9033.259766","14708.060547",
"21.501","1867.179688","0.778546","0.575521","0.302477","-7499.839844","14708.060547",
"21.552","1749.734375","0.765137","0.509335","0.441626","-7456.027832","14664.830078",
"21.603","-951.476562","0.72491","0.601205","0.310372","-7017.907715","13713.769531",
"21.655","-1068.921875","0.797112","0.636768","0.275831","-7017.907715","13670.539062",
"21.707","-7763.226562","0.72491","0.641707","0.399191","-6229.291992","12676.25",
"21.758","-17745.96875","0.728004","0.576509","0.214645","-6229.291992","12676.25",
"21.809","-17863.414062","0.718721","0.656525","0.365637","-4126.31543","12935.628906",
"21.861","-24322.828125","0.720784","0.639731","0.137669","-4126.31543","12892.400391",
"21.912","-24440.273438","0.669211","0.636768","0.279779","-3381.511719","11638.730469",
"21.963","-30195.03125","0.756885","0.753334","0.188","-3381.511719","11638.730469",
"22.014","-30312.476562","0.668179","0.703942","0.236356","-2067.151855","12114.259766",
"22.066","-37476.558594","0.719752","0.701966","0.17221","-2067.151855","11898.109375",
"22.117","-37594.003906","0.73935","0.782969","0.192934","-489.919922","11898.109375",
"22.168","-39707.996094","0.677463","0.670355","0.110037","780.628418","12676.25",
"22.218","-39825.441406","0.665085","0.798775","0.209711","780.628418","12633.019531",
"22.268","-47811.632812","0.595977","0.617011","0.189973","780.628418","12157.490234",
"22.318","-47811.632812","0.649613","0.746419","0.183065","2094.987793","12157.490234",
"22.369","-46284.859375","0.690872","0.843228","0.136682","2094.987793","12114.259766",
"22.42","-46284.859375","0.661991","0.835325","0.129774","3628.408691","11119.969727",
"22.471","-45580.195312","0.587726","0.756298","0.147538","3628.408691","11076.740234",
"22.522","-45697.640625","0.60526","0.753334","0.104115","4154.151855","10385.060547",
"22.572","-47811.632812","0.558845","0.844216","0.11201","4154.151855","10385.060547",
"22.623","-47929.074219","0.572254","0.822483","0.223527","4942.768066","10601.209961",
"22.674","-48516.296875","0.514492","0.851131","0.116945","4942.768066","11379.349609",
"22.725","-48633.738281","0.511398","0.844216","0.089312","7527.67627","11379.349609",
"22.775","-51452.394531","0.492831","0.927195","0.141616","7527.67627","11379.349609",
"22.826","-51569.839844","0.464982","0.830386","0.063653","10682.140625","12157.490234",
"22.877","-53566.386719","0.462919","0.873852","0.09622","10682.140625","12114.259766",
"22.928","-53566.386719","0.433007","0.93411","0.119905","11689.816406","11898.109375",
"22.979","-53566.386719","0.419598","0.862985","0.110037","11689.816406","12416.869141",
"23.03","-53566.386719","0.411346","0.926208","0.144577","13792.792969","12416.869141",
"23.08","-52861.722656","0.404126","0.860022","0.147538","13792.792969","12373.640625",
"23.131","-52861.722656","0.302011","0.921268","0.139643","14055.664062","10860.589844",
"23.182","-50630.289062","0.405157","0.907439","0.15642","14055.664062","10860.589844",
"23.232","-50630.289062","0.380402","0.908426","0.187013","14581.408203","11898.109375",
"23.283","-49220.960938","0.340175","0.839277","0.171223","14581.408203","11854.878906",
"23.334","-49220.960938","0.387622","0.889657","0.216619","15851.957031","11638.730469",
"23.385","-45580.195312","0.382465","0.930159","0.246225","15808.144531","11638.730469",
"23.436","-45580.195312","0.303043","0.846192","0.233396","15326.212891","11638.730469",
"23.487","-44053.425781","0.353584","0.923244","0.279779","15326.212891","11638.730469",
"23.538","-44053.425781","0.229809","0.928183","0.291621","17166.316406","11898.109375",
"23.588","-39003.332031","0.346364","0.915341","0.320241","17166.316406","11854.878906",
"23.639","-39003.332031","0.271068","0.923244","0.278792","17692.060547","11638.730469",
"23.69","-37476.558594","0.269005","0.854095","0.308398","17692.060547","12676.25",
"23.741","-37476.558594","0.296854","0.916329","0.319254","17954.933594","12633.019531",
"23.792","-35362.566406","0.211243","0.920281","0.320241","17954.933594","12157.490234",
"23.843","-35362.566406","0.248375","0.889657","0.374519","18217.804688","12157.490234",
"23.893","-33131.132812","0.190614","0.902499","0.353795","18173.992188","12157.490234",
"23.944","-33131.132812","0.178236","0.898548","0.406099","17692.060547","12373.640625",
"23.995","-29490.367188","0.214337","0.903487","0.470246","17692.060547","12157.490234",
"24.046","-29490.367188","0.087468","0.811617","0.421889","20014.097656","12157.490234",
"24.097","-26554.265625","0.219495","0.901511","0.415968","20014.097656","12157.490234",
"24.147","-26554.265625","0.176173","0.836313","0.591631","21591.328125","12935.628906",
"24.198","-20682.070312","0.058587","0.866937","0.467285","21591.328125","12935.628906",
"24.249","-20682.070312","0.079216","0.821496","0.53834","23387.621094","13151.779297",
"24.3","-17041.304688","0.028675","0.809641","0.499852","23387.621094","11638.730469",
"24.351","-17041.304688","0.046209","0.865949","0.509721","24964.853516","11638.730469",
"24.401","-13400.539062","-0.02393","0.83335","0.536366","24964.853516","11638.730469",
"24.452","-13517.984375","0.016297","0.849155","0.469259","25709.658203","12157.490234",
"24.503","-15631.976562","-0.034244","0.873852","0.494918","25709.658203","12157.490234",
"24.554","-15749.421875","-0.010521","0.811617","0.570907","27024.017578","12676.25",
"24.605","-17745.96875","-0.074471","0.780994","0.552156","27024.017578","12633.019531",
"24.656","-17745.96875","-0.097163","0.85607","0.494918","28075.505859","12416.869141",
"24.706","-14105.203125","-0.072408","0.761237","0.638014","28075.505859","12373.640625",
"24.757","-14105.203125","-0.128107","0.83335","0.579789","30923.283203","12157.490234",
"24.808","-14105.203125","-0.141516","0.817544","0.550183","30923.283203","12157.490234",
"24.858","-14105.203125","-0.184838","0.787909","0.549196","32500.517578","12676.25",
"24.91","-13400.539062","-0.173491","0.787909","0.53834","32500.517578","12676.25",
"24.96","-13517.984375","-0.250851","1.047713","0.571894","35348.296875","12676.25",
"25.011","-14927.3125","-0.252914","0.789884","0.532419","35348.296875","12633.019531",
"25.062","-15044.757812","-0.2787","0.756298","0.519589","36136.910156","10860.589844",
"25.113","-17745.96875","-0.275606","0.787909","0.529458","36136.910156","11898.109375",
"25.163","-17863.414062","-0.315833","0.800751","0.495904","37670.332031","11898.109375",
"25.214","-19977.40625","-0.338525","0.813593","0.515642","37670.332031","11854.878906",
"25.265","-20094.851562","-0.375658","0.7642","0.461364","40036.179688","10817.359375",
"25.316","-23618.164062","-0.400413","0.756298","0.456429","40036.179688","9606.919922",
"25.366","-23735.609375","-0.451986","0.777042","0.421889","41832.472656","9606.919922",
"25.417","-29490.367188","-0.442702","0.774079","0.418928","41832.472656","9606.919922",
"25.468","-29607.8125","-0.49015","0.786921","0.42485","43891.636719","9606.919922",
"25.519","-30899.695312","-0.507684","0.829398","0.338005","43891.636719","9563.689453",
"25.57","-31017.140625","-0.520062","0.703942","0.308398","44943.125","8828.779297",
"25.621","-34657.902344","-0.525219","0.740492","0.3459","44943.125","8785.549805",
"25.672","-34657.902344","-0.597421","0.721723","0.338991","47308.972656","8569.400391",
"25.722","-34540.460938","-0.619082","0.660476","0.351821","47308.972656","8526.169922",
"25.773","-34540.460938","-0.606704","0.695051","0.326162","48316.648438","7791.259766",
"25.824","-34540.460938","-0.623208","0.722711","0.321228","48316.648438","7748.029785",
"25.875","-34657.902344","-0.796493","0.711844","0.195895","49893.878906","6796.969727",
"25.926","-39003.332031","-0.687158","0.665415","0.34886","49850.066406","6796.969727",
"25.976","-39003.332031","-0.657246","0.725674","0.379453","49631.007812","7013.120117",
"26.026","-39003.332031","-0.727385","0.593302","0.229448","49631.007812","6969.889648",
"26.076","-39003.332031","-0.68819","0.742468","0.339978","52215.914062","5240.689941",
"26.127","-39120.777344","-0.693347","0.654549","0.225501","52215.914062","5197.459961",
"26.178","-43348.761719","-0.778958","0.298923","0.224514","52741.660156","4981.310059",
"26.228","-43466.203125","-0.723259","0.625901","0.234383","52741.660156","4938.080078",
"26.279","-46284.859375","-0.820217","0.607132","0.090299","54056.019531","3943.790039",
"26.33","-46402.304688","-0.791336","0.583424","0.180105","54056.019531","3900.559814",
"26.381","-46989.523438","-0.758329","0.460931","0.068588","55589.4375","2949.5",
"26.431","-47106.96875","-0.800619","0.574533","0.145564","55545.628906","2949.5",
"26.482","-51334.953125","-0.800619","0.610096","0.15642","55326.566406","2171.359863",
"26.533","-51452.394531","-0.872821","0.539959","0.091286","55326.566406","2171.359863",
"26.584","-52979.167969","-0.820217","0.511311","0.098194","56378.054688","355.699951",
"26.636","-58733.925781","-0.88623","0.800751","0.049837","56378.054688","355.699951",
"26.688","-58851.367188","-0.889324","0.495505","0.015297","56640.925781","-422.439941",
"26.739","-63079.351562","-0.833626","0.463894","0.028126","56640.925781","-1416.72998",
"26.79","-63196.796875","-0.939866","0.508347","-0.038982","56640.925781","-1416.72998",
"26.841","-68246.890625","-0.837751","0.395732","0.257081","56640.925781","-2713.629883",
"26.892","-68364.328125","-0.873852","0.412526","-0.053785","56903.800781","-2713.629883",
"26.942","-70360.882812","-0.837751","0.451052","-0.0301","56903.800781","-3232.390137",
"26.993","-70478.328125","-0.907891","0.485627","-0.218593","57692.414062","-3232.390137",
"27.045","-74001.640625","-0.905828","0.418453","-0.103128","57648.601562","-3751.149902",
"27.096","-74119.085938","-0.913048","0.469821","-0.131748","56903.800781","-3751.149902",
"27.147","-78464.515625","-0.945023","0.319668","-0.17221","57429.542969","-5264.199707",
"27.198","-78581.960938","-0.941929","0.350291","-0.20379","57385.730469","-5264.199707",
"27.249","-82809.945312","-0.946055","0.34634","-0.227475","56640.925781","-7079.859863",
"27.3","-82927.390625","-0.885199","0.327571","-0.196881","56640.925781","-7079.859863",
"27.351","-84336.71875","-0.924394","0.334486","-0.25116","56903.800781","-7814.77002",
"27.402","-84454.15625","-0.860444","0.299911","-0.257081","56859.988281","-7814.77002",
"27.453","-87977.484375","-0.92852","0.34634","-0.286687","56378.054688","-8074.149902",
"27.504","-88094.921875","-0.925425","0.218907","-0.41202","56334.242188","-8074.149902",
"27.555","-91618.242188","-0.9213","0.34634","-0.356755","55589.4375","-8333.529297",
"27.606","-91735.6875","-0.894482","0.153709","-0.511694","55545.628906","-8333.529297",
"27.658","-95963.671875","-0.881073","0.301887","-0.457416","53530.273438","-10408.570312",
"27.709","-96081.117188","-0.793399","0.152722","-0.372545","53486.464844","-10408.570312",
"27.76","-100191.65625","-0.839814","0.206065","-0.530445","52478.789062","-10927.330078",
"27.811","-100191.65625","-0.819185","0.228786","-0.508734","52434.976562","-10927.330078",
"27.862","-102423.09375","-0.820217","0.210017","-0.245238","51427.300781","-11921.619141",
"27.913","-102423.09375","-0.791336","0.19915","-0.434718","51383.488281","-11921.619141",
"27.964","-106063.859375","-0.827437","0.228786","-0.714004","50419.625","-12440.380859",
"28.016","-106063.859375","-0.754203","0.179393","-0.579789","50375.8125","-12440.380859",
"28.067","-108295.289062","-0.771738","0.207053","-0.679463","48579.519531","-12699.759766",
"28.118","-108295.289062","-0.736668","0.143831","-0.631106","48535.707031","-12699.759766",
"28.169","-112640.71875","-0.735637","0.21792","-0.688345","47046.097656","-12699.759766",
"28.222","-112523.273438","-0.671686","0.150746","-0.666634","47002.285156","-12699.759766",
"28.275","-111231.390625","-0.715008","0.227798","-0.620251","45994.609375","-13477.900391",
"28.327","-111231.390625","-0.665498","0.080609","-0.72782","45950.800781","-13477.900391",
"28.379","-115576.820312","-0.670655","0.005532","-0.714991","45205.996094","-16287.849609",
"28.431","-115576.820312","-0.66034","0.293984","-0.739662","45162.183594","-16287.849609",
"28.483","-119217.585938","-0.650026","-0.121901","-0.729794","43672.574219","-19357.179688",
"28.535","-119217.585938","-0.59639","0.021338","-0.782098","43628.761719","-19357.179688",
"28.586","-120744.359375","-0.555131","-0.112022","-0.755452","43146.832031","-20913.458984",
"28.638","-120744.359375","-0.536565","-0.092265","-0.787032","43103.019531","-20913.458984",
"28.689","-122153.6875","-0.543785","-0.109059","-0.877825","40780.984375","-22167.128906",
"28.74","-122153.6875","-0.502527","-0.147585","-0.779137","40737.171875","-22167.128906",
"28.791","-122153.6875","-0.505621","-0.214758","-0.862035","39510.433594","-23982.789062",
"28.842","-122153.6875","-0.463332","-0.234515","-0.756439","39466.621094","-23982.789062",
"28.894","-122858.34375","-0.458174","-0.256248","-0.896576","37933.203125","-27052.119141",
"28.945","-122740.90625","-0.372563","-0.265139","-0.852166","37889.390625","-27052.119141",
"28.996","-120744.359375","-0.408664","-0.270078","-0.819599","36399.78125","-28349.019531",
"29.047","-120626.914062","-0.387004","-0.264151","-0.864996","36355.972656","-28349.019531",
"29.098","-119922.25","-0.349871","-0.327373","-0.904471","34822.550781","-30380.830078",
"29.149","-119922.25","-0.394224","-0.342191","-0.870917","34778.738281","-30380.830078",
"29.2","-121449.015625","-0.435482","-0.404426","-0.796901","33508.191406","-32715.248047",
"29.251","-121331.578125","-0.433419","-0.412328","-0.737689","33508.191406","-32715.248047",
"29.302","-117103.59375","-0.442702","-0.409365","-0.819599","33508.191406","-34228.300781",
"29.353","-117103.59375","-0.394224","-0.495308","-0.695253","33508.191406","-34228.300781",
"29.404","-119217.585938","-0.40557","-0.491356","-0.862035","34559.679688","-34487.679688",
"29.456","-119100.140625","-0.371532","-0.537785","-0.997237","34515.867188","-34487.679688",
"29.507","-114167.492188","-0.385972","-0.543712","-0.695253","34033.933594","-37816.390625",
"29.558","-114050.046875","-0.391129","-0.585202","-0.71203","33990.121094","-37816.390625",
"29.609","-108999.953125","-0.418979","-0.604959","-0.693279","33245.320312","-40107.582031",
"29.661","-108882.515625","-0.393192","-0.601008","-0.675516","33245.320312","-40107.582031",
"29.712","-108295.289062","-0.382878","-0.685963","-0.669594","34559.679688","-41145.101562",
"29.763","-108177.84375","-0.389067","-0.660279","-0.631106","34515.867188","-41145.101562",
"29.815","-101013.765625","-0.371532","-0.464684","-0.599526","32763.388672","-43695.671875",
"29.868","-100896.320312","-0.366374","-0.703744","-0.535379","32719.576172","-43695.671875",
"29.92","-97373","-0.397318","-0.799565","-0.606434","32500.517578","-45770.710938",
"29.971","-97373","-0.362249","-0.784748","-0.483075","32456.705078","-45770.710938",
"30.022","-88682.140625","-0.339556","-0.823274","-0.470246","31974.771484","-48061.902344",
"30.073","-88682.140625","-0.323053","-0.825249","-0.383401","31974.771484","-48061.902344",
"30.124","-79873.84375","-0.312739","-0.862788","-0.325175","32500.517578","-50396.320312",
"30.175","-79873.84375","-0.335431","-0.897362","-0.337018","32456.705078","-50396.320312",
"30.226","-73296.984375","-0.285921","-0.921071","-0.217606","30923.283203","-51909.371094",
"30.278","-73296.984375","-0.280763","-0.996147","-0.089312","30923.283203","-51909.371094",
"30.33","-66015.453125","-0.300361","-0.947743","-0.154446","31186.158203","-53984.410156",
"30.381","-65898.007812","-0.252914","-0.934901","0.012336","31142.345703","-53984.410156",
"30.432","-50630.289062","-0.266323","-0.965524","-0.005428","29871.798828","-55497.460938",
"30.484","-50630.289062","-0.268386","-1.221377","0.09622","29871.798828","-55497.460938",
"30.534","-40412.660156","-0.242599","-1.008002","0.151485","30660.412109","-56275.601562",
"30.585","-40295.214844","-0.297267","-1.019856","0.257081","30616.599609","-56275.601562",
"30.635","-26554.265625","-0.201341","-0.869703","0.237343","30134.669922","-56534.980469",
"30.686","-26436.820312","-0.198247","-0.84797","0.399191","30090.857422","-56491.75",
"30.737","-11873.765625","-0.199278","-0.902302","0.399191","29346.052734","-54719.320312",
"30.788","-11873.765625","-0.220939","-0.904277","0.464324","29346.052734","-54719.320312",
"30.839","-3182.914062","-0.203404","-0.832164","0.450508","29346.052734","-55756.839844",
"30.89","-3182.914062","-0.185869","-0.865751","0.515642","29346.052734","-55713.609375",
"30.942","1279.960938","-0.175554","-0.794626","0.6015","30134.669922","-54503.171875",
"30.993","1279.960938","-0.17968","-0.800553","0.613343","30090.857422","-54459.941406",
"31.044","9970.8125","-0.143579","-0.745234","0.667621","28601.248047","-52946.890625",
"31.096","9970.8125","-0.140485","-0.721525","0.710056","28557.435547","-52903.660156",
"31.149","19483.78125","-0.118824","-0.690902","0.738676","28338.376953","-52168.75",
"31.201","19483.78125","-0.123981","-0.680036","0.781111","28338.376953","-52125.519531",
"31.253","28292.078125","-0.090975","-0.579275","0.764334","28864.119141","-50136.941406",
"31.305","28292.078125","-0.094069","-0.584214","0.765321","28820.310547","-50093.710938",
"31.357","35573.609375","-0.032182","-0.559518","0.83835","27286.888672","-48580.660156",
"31.408","35573.609375","0.013203","-0.534822","0.864996","27243.076172","-48537.429688",
"31.459","37805.046875","0.01114","-0.529882","0.888681","27024.017578","-47067.609375",
"31.51","37805.046875","-0.008458","-0.493332","0.842297","26980.205078","-47024.382812",
"31.56","42150.46875","-0.032182","-0.538773","0.851179","26235.400391","-46808.230469",
"31.611","42150.46875","0.045178","-0.439","0.937037","26235.400391","-46765",
"31.661","45908.6875","0.047241","-0.473575","0.925195","26498.271484","-46030.089844",
"31.712","45908.6875","0.121506","-0.355033","0.915326","26454.458984","-45986.859375",
"31.763","48022.671875","0.077153","-0.38862","0.915326","25972.529297","-43955.050781",
"31.814","48022.671875","0.11738","-0.289835","0.887694","25928.716797","-43911.820312",
"31.865","52485.546875","0.128726","-0.291811","0.971578","24701.980469","-41923.242188",
"31.916","52485.546875","0.162764","-0.250321","0.911379","24658.167969","-41880.011719",
"31.967","56008.859375","0.172047","-0.287859","0.972565","23913.365234","-39891.429688",
"32.018","55891.421875","0.148324","-0.237479","0.909405","23913.365234","-39891.429688",
"32.07","55304.203125","0.20918","-0.235503","1.01204","24176.236328","-40366.960938",
"32.121","55304.203125","0.180299","-0.202904","0.88572","24132.425781","-40323.730469",
"32.172","56126.3125","0.154513","-0.280944","0.974539","23650.492188","-38594.53125",
"32.222","56126.3125","0.218463","-0.138694","0.915326","23606.681641","-38551.300781",
"32.272","57535.640625","0.284477","-0.111034","1.014014","23387.621094","-38335.152344",
"32.322","57535.640625","0.264879","-0.193026","0.93309","23343.808594","-38291.921875",
"32.373","58944.96875","0.319546","-0.195001","0.912366","22599.005859","-35784.582031",
"32.423","58944.96875","0.345333","-0.166354","0.893615","22555.193359","-35784.582031",
"32.474","59767.078125","0.386591","-0.197965","0.913352","21591.328125","-36043.960938",
"32.524","59767.078125","0.380402","-0.198953","0.779137","21547.517578","-36043.960938",
"32.574","61176.40625","0.437133","-0.297738","0.941972","19751.224609","-36562.722656",
"32.626","61176.40625","0.48458","-0.157463","0.731767","19707.412109","-36562.722656",
"32.677","64112.5","0.472202","-0.286871","0.916313","17954.933594","-37297.632812",
"32.728","64112.5","0.559876","-0.159439","0.887694","17911.121094","-37297.632812",
"32.778","70689.359375","0.52687","-0.328361","0.872891","17166.316406","-39372.671875",
"32.829","70689.359375","0.553687","-0.175244","0.765321","17122.503906","-39372.671875",
"32.88","80202.328125","0.553687","-0.248345","0.708082","16377.701172","-41145.101562",
"32.931","80202.328125","0.636204","-0.187099","0.801836","16333.888672","-41145.101562",
"32.981","82433.765625","0.611449","-0.286871","0.871904","15851.957031","-41663.859375",
"33.032","82433.765625","0.611449","-0.195001","0.708082","15808.144531","-41663.859375",
"33.083","89715.296875","0.628984","-0.244394","0.693279","14800.46875","-42442",
"33.134","89715.296875","0.641362","-0.21871","0.7594","14756.65625","-42442",
"33.185","94765.390625","0.700155","0.040107","0.690319","14055.664062","-42701.382812",
"33.236","94765.390625","0.631047","-0.278969","0.773216","14011.853516","-42701.382812",
"33.288","102869.015625","0.722847","-0.150548","0.667621","11164.072266","-43220.140625",
"33.34","102869.015625","0.677463","-0.26909","0.812691","11120.261719","-43220.140625",
"33.391","108976.109375","0.722847","-0.195001","0.599526","8053.42041","-44214.429688",
"33.442","138572","0.6754","-0.256248","0.765321","8009.60791","-44214.429688",
"33.493","114965.75","0.737287","-0.175244","0.688345","6257.128418","-44214.429688",
"33.543","85487.3125","0.651676","-0.233528","0.705122","6257.128418","-44171.199219",
"33.593","111559.875","0.677463","-0.276005","0.695253","7045.744629","-43955.050781",
"33.644","111442.4375","0.645487","-0.31058","0.801836","7045.744629","-43955.050781",
"33.695","103573.6875","0.616606","-0.239455","0.709069","8053.42041","-44992.570312",
"33.745","103456.234375","0.612481","-0.297738","0.707096","8053.42041","-44992.570312",
"33.796","94060.71875","0.582568","-0.35207","0.821573","10682.140625","-47067.609375",
"33.847","93825.828125","0.568128","-0.323422","0.681437","10682.140625","-47024.382812",
"33.898","79497.671875","0.500052","-0.420231","0.766308","13792.792969","-46808.230469",
"33.95","79380.21875","0.468076","-0.441964","0.801836","13792.792969","-46808.230469",
"34.001","68575.375","0.451573","-0.384669","0.726833","17692.060547","-47543.140625",
"34.051","68457.921875","0.384528","-0.458757","0.815652","17692.060547","-47543.140625",
"34.102","58944.96875","0.377308","-0.501235","0.797888","18699.736328","-48840.039062",
"34.154","50958.765625","0.405157","-0.470611","0.776177","18699.736328","-48840.039062",
"34.206","50841.328125","0.312326","-0.617801","0.809731","20802.712891","-50136.941406",
"34.257","44381.90625","0.318515","-0.496296","0.717951","20802.712891","-51390.609375",
"34.308","44264.46875","0.26591","-0.581251","0.662686","22117.072266","-51390.609375",
"34.359","36278.265625","0.284477","-0.559518","0.832429","22117.072266","-51390.609375",
"34.409","36160.828125","0.22362","-0.682999","0.788019","24439.109375","-51390.609375",
"34.46","31932.84375","0.284477","-0.581251","0.750518","24439.109375","-51390.609375",
"34.51","31815.398438","0.198865","-0.663242","0.739662","25753.470703","-51909.371094",
"34.561","27587.414062","0.215369","-0.739307","0.758413","25753.470703","-51909.371094",
"34.612","27469.96875","0.130789","-0.59508","0.533406","26235.400391","-51995.832031",
"34.663","21715.21875","0.261784","-0.788699","0.803809","26235.400391","-62846.5625",
"34.714","21597.773438","0.101908","-0.753136","0.583736","26498.271484","-52687.511719",
"34.765","13729.023438","0.129758","-0.808456","0.757426","26498.271484","-52687.511719",
"34.815","13611.578125","0.016297","-0.70572","0.6015","27286.888672","-52687.511719",
"34.866","5625.390625","0.013203","-0.801541","0.553143","27286.888672","-53984.410156",
"34.916","5507.945312","0.085405","-0.870691","0.615316","27549.759766","-53984.410156",
"34.967","-246.8125","-0.041465","-0.817347","0.567946","27549.759766","-53984.410156",
"35.017","-364.257812","-0.011552","-0.833152","0.534393","28075.505859","-54503.171875",
"35.069","-3887.578125","-0.035276","-0.808456","0.504786","28075.505859","-54503.171875",
"35.121","-4005.023438","-0.08788","-0.831177","0.425836","28075.505859","-54978.699219",
"35.173","-15514.53125","-0.166271","-0.881557","0.406099","31449.029297","-54978.699219",
"35.224","-15631.976562","-0.248788","-0.978366","0.342939","31449.029297","-54978.699219",
"35.275","-25732.15625","-0.216813","-0.938852","0.394256","32763.388672","-55756.839844",
"35.327","-25849.601562","-0.16524","-0.935889","0.391296","32763.388672","-55713.609375",
"35.379","-29490.367188","-0.269417","-0.88452","0.247212","33508.191406","-55238.082031",
"35.431","-29607.8125","-0.297267","-0.911192","0.201816","33508.191406","-55238.082031",
"35.483","-35245.125","-0.318927","-0.872666","0.092273","33771.0625","-55238.082031",
"35.534","-35362.566406","-0.367406","-0.891435","0.049837","33771.0625","-55238.082031",
"35.587","-44053.425781","-0.446828","-0.91218","-0.007402","34822.550781","-55238.082031",
"35.64","-44170.867188","-0.382878","-0.920083","-0.036021","34822.550781","-55194.851562",
"35.692","-52157.058594","-0.414853","-0.873654","-0.133722","35085.421875","-54243.789062",
"35.744","-52274.503906","-0.416916","-0.831177","-0.189973","35085.421875","-54200.5625",
"35.796","-63079.351562","-0.532439","-0.88946","-0.384388","35348.296875","-52428.132812",
"35.847","-63196.796875","-0.408664","-0.796602","-0.406099","35348.296875","-52384.902344",
"35.898","-73296.984375","-0.433419","-0.707695","-0.469259","35611.167969","-50655.699219",
"35.949","-73414.421875","-0.471583","-0.727452","-0.523537","35611.167969","-50612.472656",
"36.001","-82105.28125","-0.440639","-0.465672","-0.543274","36399.78125","-49618.179688",
"36.052","-82222.726562","-0.483961","-0.748197","-0.532419","36399.78125","-49574.949219",
"36.103","-86450.710938","-0.443734","-0.687938","-0.521563","36925.527344","-47802.519531",
"36.154","-86568.15625","-0.464363","-0.683987","-0.611369","36881.714844","-47759.292969",
"36.205","-90091.46875","-0.421042","-0.577299","-0.625185","36399.78125","-46808.230469",
"36.256","-90208.914062","-0.464363","-0.585202","-0.674529","36399.78125","-46765",
"36.307","-97373","-0.399381","-0.475551","-0.702161","36399.78125","-44733.191406",
"36.359","-97373","-0.465395","-0.527907","-0.763348","36355.972656","-44689.960938",
"36.411","-102423.09375","-0.42001","-0.445915","-0.754466","34559.679688","-42442",
"36.462","-102423.09375","-0.403507","-0.439","-0.713017","34559.679688","-42398.769531",
"36.513","-108295.289062","-0.407633","-0.378741","-0.723872","34559.679688","-40410.191406",
"36.564","-108295.289062","-0.409696","-0.33824","-0.830455","34515.867188","-40366.960938",
"36.615","-111231.390625","-0.338525","-0.190062","-1.016974","34033.933594","-36822.101562",
"36.666","-111231.390625","-0.27148","-0.100168","-0.951841","33990.121094","-36778.871094",
"36.717","-116281.484375","-0.250851","-0.051763","-0.940985","32237.646484","-33190.78125",
"36.768","-116281.484375","-0.164208","0.004544","-0.944932","32193.833984","-33147.550781",
"36.819","-118512.921875","-0.204435","-0.013237","-0.959736","30923.283203","-29862.068359",
"36.87","-118512.921875","-0.17968","-0.023116","-0.890654","30879.474609","-29818.837891",
"36.921","-120039.6875","-0.208561","-0.020152","-0.957762","29389.865234","-28867.779297",
"36.972","-120039.6875","-0.176586","0.033192","-0.850192","29346.052734","-28824.548828",
"37.024","-120039.6875","-0.151831","0.100366","-0.950854","28601.248047","-27570.878906",
"37.075","-120039.6875","-0.134296","0.133952","-0.956775","28601.248047","-27527.648438",
"37.126","-120744.359375","-0.129139","0.171491","-0.939998","28601.248047","-25279.689453",
"37.177","-120744.359375","-0.114698","0.160624","-0.935064","28557.435547","-25236.458984",
"37.228","-122858.34375","0.005982","0.21792","-0.958749","26761.146484","-23982.789062",
"37.279","-122740.90625","-0.012584","0.1626","-0.910392","26717.333984","-23939.558594",
"37.33","-120744.359375","-0.050748","0.20409","-1.031777","25227.724609","-21950.978516",
"37.381","-120626.914062","-0.034244","0.141855","-0.974539","25183.912109","-21950.978516",
"37.432","-119217.585938","-0.246725","0.124074","-1.003158","23913.365234","-23204.648438",
"37.484","-119217.585938","0.022486","0.125062","-0.920261","23913.365234","-23204.648438",
"37.535","-121449.015625","0.028675","0.182357","-0.96467","24176.236328","-25020.308594",
"37.587","-121331.578125","-0.012584","0.122098","-0.970591","24176.236328","-25020.308594",
"37.638","-117808.257812","0.059618","0.174454","-1.008092","24439.109375","-25020.308594",
"37.69","-117808.257812","0.051367","0.205078","-0.984407","24439.109375","-24977.080078",
"37.741","-120039.6875","0.103971","0.257434","-0.952827","24439.109375","-24760.929688",
"37.792","-120039.6875","0.085405","0.262373","-0.956775","24395.296875","-24717.699219",
"37.843","-120039.6875","0.056524","0.286081","-0.887694","23913.365234","-23982.789062",
"37.894","-120039.6875","0.086436","0.285093","-1.002171","23913.365234","-23939.558594",
"37.946","-121449.015625","0.107065","0.355231","-0.954801","23913.365234","-21950.978516",
"37.997","-121449.015625","0.119443","0.365109","-0.953814","23869.552734","-21907.75",
"38.048","-122153.6875","0.095719","0.408575","-0.914339","23124.748047","-20135.320312",
"38.099","-122036.242188","-0.193089","0.361158","-0.714991","23124.748047","-20092.089844",
"38.15","-120039.6875","0.119443","0.43821","-0.961709","23913.365234","-18103.509766",
"38.2","-120039.6875","0.092625","0.542922","-0.751505","23913.365234","-18060.279297",
"38.251","-120744.359375","0.139041","0.485627","-0.874864","23913.365234","-15250.330078",
"38.302","-120626.914062","0.112223","0.700978","-0.649857","23869.552734","-15163.869141",
"38.355","-116281.484375","0.120474","0.60812","-0.704135","23124.748047","-9889.810547",
"38.406","-116164.039062","0.122537","0.811617","-0.682424","23124.748047","-9846.580078",
"38.456","-112640.71875","0.131821","0.720735","-0.817626","23124.748047","-8074.149902",
"38.506","-112523.273438","0.112223","0.827423","-0.508734","23124.748047","-8030.92041",
"38.557","-110526.726562","0.154513","0.75037","-0.586697","23650.492188","-4486.060059",
"38.608","-110409.28125","0.143167","0.863973","-0.518603","23606.681641","-4442.830078",
"38.659","-105359.195312","0.095719","0.898548","-0.503799","23387.621094","-1416.72998",
"38.71","-105241.75","0.176173","0.873852","-0.272871","23387.621094","-1373.5",
"38.76","-100191.65625","0.118412","0.931147","-0.596566","24176.236328","615.079834",
"38.811","-100074.210938","0.10294","0.938062","-0.069575","24176.236328","701.540039",
"38.862","-90796.132812","0.129758","0.835325","-0.20379","24176.236328","4981.310059",
"38.913","-90678.695312","0.100877","1.217623","-0.038982","24132.425781","4981.310059",
"38.964","-76937.742188","0.142135","0.821496","0.046877","23913.365234","9088.160156",
"39.014","-76820.296875","0.131821","1.128717","0.054772","23869.552734","9088.160156",
"39.065","-65193.34375","0.185456","0.895584","0.221553","23124.748047","11119.969727",
"39.116","-65075.898438","0.171016","0.943001","0.031087","23080.9375","11119.969727",
"39.167","-52744.28125","0.210211","1.011163","0.404125","22861.876953","13713.769531",
"39.218","-52626.835938","0.190614","0.756298","0.216619","22861.876953","13670.539062",
"39.268","-38885.886719","0.220526","0.851131","0.31728","23387.621094","13454.390625",
"39.319","-38885.886719","0.246313","0.932135","0.658739","23387.621094","13454.390625",
"39.37","-28668.257812","0.259722","0.787909","0.467285","23387.621094","13973.150391",
"39.421","-28668.257812","0.27313","0.876815","0.465311","23387.621094","13973.150391",
"39.472","-17628.523438","0.294791","0.728638","0.647883","23913.365234","14448.679688",
"39.524","-17628.523438","0.307169","0.762225","0.63308","23869.552734","14405.449219",
"39.575","-8115.5625","0.330892","0.67727","0.713017","22336.132812","12935.628906",
"39.627","-7998.117188","0.3082","0.607132","0.568933","22336.132812","12892.400391",
"39.678","4333.507812","0.346364","0.578485","0.762361","22379.945312","12157.490234",
"39.729","4333.507812","0.351521","0.628865","0.652818","22336.132812","12114.259766",
"39.78","14551.132812","0.366993","0.455991","0.832429","19488.353516","9606.919922",
"39.831","14668.578125","0.369056","0.412526","0.745584","19488.353516","9563.689453",
"39.883","27000.195312","0.39278","0.386842","0.937037","19751.224609","7013.120117",
"39.933","27117.640625","0.378339","0.270276","0.812691","19707.412109","6926.660156",
"39.984","43090.03125","0.376276","0.30485","0.894602","17692.060547","-1416.72998",
"40.035","43090.03125","0.411346","0.186308","0.889667","17648.248047","-1416.72998",
"40.086","51898.328125","0.397937","0.237677","0.916313","16903.445312","-5004.819824",
"40.137","51898.328125","0.424755","0.071718","0.911379","16859.632812","-5004.819824",
"40.187","53307.65625","0.413409","0.063815","0.942959","16114.828125","-7814.77002",
"40.238","53307.65625","0.405157","0.045046","0.627159","16071.017578","-7814.77002",
"40.289","56948.421875","0.419598","0.179393","1.063357","15851.957031","-10408.570312",
"40.34","56830.96875","0.447447","0.019362","0.851179","15808.144531","-10408.570312",
"40.39","54012.3125","0.450542","-0.001383","0.864996","13792.792969","-13996.660156",
"40.441","53894.875","0.520681","0.294972","0.890654","13748.980469","-13996.660156",
"40.492","53307.65625","0.478391","-0.152524","0.731767","13267.048828","-16547.228516",
"40.543","53190.203125","0.524807","-0.23254","1.065331","13223.236328","-16590.458984",
"40.595","51076.21875","0.566065","-0.225625","0.814665","12215.560547","-21950.978516",
"40.647","51076.21875","0.558845","-0.245382","0.868943","12215.560547","-21994.208984",
"40.698","51076.21875","0.521712","-0.285884","0.763348","12215.560547","-26273.978516",
"40.749","50958.765625","0.492831","-0.256248","0.846245","12171.748047","-26273.978516",
"40.802","47435.453125","0.49902","-0.392571","0.666634","11426.945312","-28608.398438",
"40.855","47318.015625","0.539247","-0.454806","0.803809","11383.132812","-28608.398438",
"40.907","43559.796875","0.49902","-0.451842","0.725846","10419.269531","-31158.970703",
"40.958","42267.921875","0.494894","-0.475551","0.518603","10419.269531","-31158.970703",
"41.01","42150.46875","0.427849","-0.496296","0.742623","10419.269531","-33968.921875",
"41.062","34281.71875","0.44951","-0.629655","0.713017","10419.269531","-37297.632812",
"41.113","34164.28125","0.352553","-0.487405","0.666634","10682.140625","-37297.632812",
"41.164","32050.289062","0.325735","-0.813395","1.018948","11207.884766","-39632.050781",
"41.215","31932.84375","0.285508","-0.832164","0.494918","11207.884766","-39632.050781",
"41.266","20305.890625","0.280351","-0.837104","0.472219","14318.537109","-43220.140625",
"41.317","20188.445312","0.238061","-0.886496","0.4436","14318.537109","-43220.140625",
"41.368","15960.460938","0.180299","-0.932925","0.33307","15851.957031","-46548.851562",
"41.419","15843.015625","0.176173","-0.848958","0.383401","15851.957031","-46548.851562",
"41.47","7856.828125","0.151418","-0.921071","0.294582","17429.189453","-48061.902344",
"41.521","7739.382812","0.125632","-0.997135","0.189973","17429.189453","-48061.902344",
"41.572","1397.40625","0.144198","-0.916132","0.188","18699.736328","-49618.179688",
"41.623","1279.960938","0.08231","-1.083078","0.191947","18655.925781","-49618.179688",
"41.674","-1538.695312","0.114286","-0.871678","0.106089","18480.677734","-49877.5625",
"41.724","-1656.140625","0.027643","-1.018868","0.511694","18480.677734","-49877.5625",
"41.775","-3770.132812","0.000825","-0.998123","0.027139","20276.96875","-50655.699219",
"41.826","-3887.578125","0.061681","-0.947743","0.15938","20276.96875","-50655.699219",
"41.877","-6001.570312","-0.119856","-0.915144","0.108063","21591.328125","-50655.699219",
"41.929","-6236.453125","-0.034244","-1.0732","-0.229448","21591.328125","-50655.699219",
"41.98","-19155.296875","-0.028056","-0.878593","0.122866","23387.621094","-52428.132812",
"42.031","-19272.742188","-0.132233","-0.98133","-0.06464","23387.621094","-52428.132812",
"42.083","-20564.625","-0.105415","-0.949718","-0.151485","24964.853516","-52687.511719",
"42.134","-20682.070312","-0.111604","-1.012941","-0.090299","24964.853516","-52644.28125",
"42.185","-27258.929688","-0.171429","-0.864763","-0.125827","25972.529297","-52428.132812",
"42.236","-27376.375","-0.242599","-1.046528","-0.19096","25972.529297","-52428.132812",
"42.287","-30077.585938","-0.174523","-0.955646","-0.171223","26498.271484","-53984.410156",
"42.338","-30195.03125","-0.119856","-0.911192","-0.22254","26498.271484","-53941.179688",
"42.389","-39590.550781","-0.166271","-0.930949","-0.306425","27024.017578","-53725.03125",
"42.44","-39707.996094","-0.100258","-0.892423","-0.319254","27024.017578","-53681.800781",
"42.491","-47694.1875","-0.294172","-0.950706","-0.327149","27286.888672","-52428.132812",
"42.543","-47811.632812","-0.210624","-0.866739","-0.324188","27243.076172","-52384.902344",
"42.594","-48398.851562","-0.267354","-0.7561","-0.472219","26761.146484","-52168.75",
"42.645","-48398.851562","-0.241568","-0.872666","-0.471233","26761.146484","-52125.519531",
"42.696","-46989.523438","-0.294172","-0.784748","-0.515642","28601.248047","-51909.371094",
"42.746","-47106.96875","-0.317896","-0.726465","-0.457416","28601.248047","-51866.140625",
"42.797","-58616.480469","-0.32099","-0.760051","-0.6015","32237.646484","-51433.839844",
"42.848","-58733.925781","-0.382878","-0.827225","-0.521563","32237.646484","-51390.609375",
"42.899","-63079.351562","-0.302424","-0.737331","-0.714991","32763.388672","-49877.5625",
"42.95","-63196.796875","-0.347808","-0.813395","-0.647883","32763.388672","-49834.332031",
"43.002","-68129.445312","-0.308613","-0.574336","-0.612356","34033.933594","-49618.179688",
"43.053","-68246.890625","-0.305518","-0.738319","-0.496891","34033.933594","-49574.949219",
"43.104","-71770.203125","-0.329242","-0.371827","-0.634067","34822.550781","-48061.902344",
"43.155","-71887.65625","-0.333368","-0.656327","-0.621238","34778.738281","-48018.671875",
"43.206","-79169.179688","-0.32821","-0.761039","-0.800849","34296.808594","-47067.609375",
"43.257","-79286.625","-0.254977","-0.427146","-0.834402","34252.996094","-47024.382812",
"43.308","-83514.609375","-0.374626","-0.546676","-0.841311","34033.933594","-45770.710938",
"43.359","-83632.054688","-0.323053","-0.332313","-0.847232","34033.933594","-45727.480469",
"43.41","-90796.132812","-0.409696","-0.409365","-0.620251","35611.167969","-44214.429688",
"43.462","-90913.578125","-0.389067","-0.159439","-0.741636","35611.167969","-44171.199219",
"43.513","-94554.34375","-0.425168","-0.299714","-1.014014","38721.820312","-41663.859375",
"43.564","-94671.789062","-0.391129","-0.237479","-0.9173","38721.820312","-41620.632812",
"43.615","-98077.664062","-0.373595","-0.16833","-0.858087","41832.472656","-40626.339844",
"43.666","-98077.664062","-0.357091","-0.033982","-0.818612","41832.472656","-40583.109375",
"43.717","-105359.195312","-0.338525","-0.198953","-0.968617","41832.472656","-37038.25",
"43.768","-105359.195312","-0.307581","-0.219698","-0.864996","41788.660156","-36995.019531",
"43.819","-109704.617188","-0.242599","0.325595","-1.102832","41569.597656","-36043.960938",
"43.87","-109704.617188","-0.223002","0.059864","-1.051515","41525.785156","-35957.5",
"43.922","-114872.15625","-0.233316","0.227798","-0.771242","41043.855469","-31677.728516",
"43.973","-114872.15625","-0.218876","0.085548","-0.989342","41043.855469","-31634.498047",
"44.024","-117808.257812","-0.199278","0.156673","-0.959736","41043.855469","-30380.830078",
"44.075","-117808.257812","-0.237442","0.241628","-0.889667","41043.855469","-30337.599609",
"44.126","-119217.585938","-0.145642","-0.00731","-0.825521","41569.597656","-28089.638672",
"44.177","-119217.585938","-0.147705","0.164576","-0.944932","41525.785156","-28046.410156",
"44.229","-120039.6875","-0.162145","0.211992","-0.919274","39510.433594","-26792.740234",
"44.28","-120039.6875","-0.146674","0.340413","-0.879799","39510.433594","-26749.509766",
"44.331","-123680.453125","-0.112635","0.298923","-0.813678","39773.308594","-22945.269531",
"44.382","-123563.015625","-0.118824","0.363133","-0.99921","39773.308594","-22902.039062",
"44.433","-122153.6875","-0.103352","0.399684","-0.803809","40561.921875","-20913.458984",
"44.484","-122153.6875","-0.088912","0.386842","-0.862035","40518.109375","-20870.228516",
"44.535","-122858.34375","-0.034244","0.40166","-0.879799","39773.308594","-19616.558594",
"44.586","-122858.34375","-0.039402","0.453028","-0.843284","39729.496094","-19573.330078",
"44.638","-125089.78125","0.038989","0.377951","-0.796901","38721.820312","-17844.128906",
"44.69","-125089.78125","0.115317","0.604169","-0.952827","38678.007812","-17800.898438",
"44.742","-125794.445312","0.2164","0.353255","-0.653804","36136.910156","-16028.46875",
"44.795","-125794.445312","0.218463","0.586387","-1.163032","36093.097656","-15985.240234",
"44.847","-126616.554688","0.336049","0.514274","-0.691306","32763.388672","-13477.900391",
"44.899","-126616.554688","0.282414","0.449076","-0.803809","32675.763672","-13434.669922",
"44.95","-128730.546875","0.425786","0.563667","-0.812691","27024.017578","-11186.708984",
"45.002","-128730.546875","0.417535","0.499457","-0.732754","26936.392578","-11143.480469",
"45.053","-128730.546875","0.482517","0.506372","-0.874864","22599.005859","-8333.529297",
"45.104","-128613.101562","0.457762","0.518226","-0.757426","22555.193359","-8290.300781",
"45.155","-126616.554688","0.452604","0.464882","-0.593605","21328.457031","-7814.77002",
"45.206","-126616.554688","0.517586","0.539959","-0.72782","21284.644531","-7814.77002",
"45.257","-126616.554688","0.553687","0.496493","-0.639001","20276.96875","-8074.149902",
"45.308","-126499.109375","0.494894","0.538971","-0.681437","20233.15625","-8030.92041",
"45.359","-120039.6875","0.556782","0.494517","-0.598539","18217.804688","-6820.47998",
"45.41","-120039.6875","0.595977","0.53008","-0.642949","18173.992188","-6777.249512",
"45.461","-120744.359375","0.634141","0.480688","-0.656765","15851.957031","-5782.960449",
"45.512","-120626.914062","0.673337","0.53008","-0.590644","15808.144531","-5739.72998",
"45.562","-120039.6875","0.65477","0.49353","-0.532419","14581.408203","-4226.680176",
"45.613","-119922.25","0.719752","0.49353","-0.482088","14537.597656","-4183.450195",
"45.664","-117808.257812","0.723878","0.472785","-0.473206","12741.304688","-2194.870117",
"45.715","-117690.8125","0.753791","0.579472","-0.469259","12653.681641","-2151.640137",
"45.766","-111936.054688","0.799175","0.398696","-0.50676","8316.292969","-638.590088",
"45.817","-111818.609375","0.854874","0.492542","-0.445574","8228.667969","-595.360107",
"45.868","-107590.625","0.849716","0.373012","-0.419915","3146.476074","615.079834",
"45.918","-107473.1875","0.847653","0.413514","-0.371558","3058.852051","615.079834",
"45.968","-103127.757812","0.83837","0.373012","-0.331096","-2067.151855","355.699951",
"46.019","-103010.3125","0.93017","0.351279","-0.387348","-2110.963867","355.699951",
"46.069","-99486.992188","0.951831","0.28213","-0.31728","-5966.419922","-163.060059",
"46.12","-99369.546875","0.961114","0.290033","-0.362676","-6054.043945","-163.060059",
"46.171","-93027.570312","0.940485","0.234713","-0.154446","-10654.303711","-422.439941",
"46.222","-92910.125","0.956988","0.173466","-0.341952","-10698.115234","-422.439941",
"46.273","-78464.515625","0.97246","0.34634","-0.189973","-16612.736328","-3232.390137",
"46.324","-78347.070312","1.025064","0.074681","-0.200829","-16612.736328","-3232.390137",
"46.375","-63079.351562","1.031253","0.14877","-0.008388","-20774.875","-5264.199707",
"46.427","-63079.351562","1.051882","0.166551","-0.488009","-20818.6875","-5264.199707",
"46.478","-59321.144531","0.946674","0.110244","-0.169249","-25462.759766","-6561.100098",
"46.529","-59203.699219","1.035379","0.088511","-0.03306","-25506.572266","-6561.100098",
"46.579","-43348.761719","1.056008","0.094438","-0.034047","-30369.703125","-8592.910156",
"46.63","-43231.316406","1.039505","0.095426","-0.106089","-30369.703125","-8592.910156",
"46.681","-30077.585938","1.037442","0.010471","0.060693","-34268.972656","-9371.050781",
"46.732","-29960.140625","1.037442","0.075669","-0.066614","-34312.785156","-9371.050781",
"46.783","-8937.664062","1.035379","-0.005334","0.067601","-38693.984375","-11186.708984",
"46.833","-8820.226562","1.076637","0.066779","0.094247","-38693.984375","-11186.708984",
"46.884","11615.03125","0.993089","-0.010274","0.084378","-42593.253906","-14515.419922",
"46.935","11732.476562","1.075606","-0.02114","0.217606","-42593.253906","-14515.419922",
"46.986","30640.960938","1.018876","-0.068557","0.374519","-46492.523438","-16287.849609",
"47.037","30758.40625","1.118927","-0.063618","0.168262","-46492.523438","-16287.849609",
"47.088","46730.78125","0.907478","-0.080411","0.174183","-47806.882812","-18362.888672",
"47.139","46965.671875","0.934296","-0.113998","0.454456","-47587.820312","-18492.580078",
"47.19","70806.8125","0.861062","-0.172281","0.567946","-29581.087891","-31677.728516",
"47.241","70924.25","0.917793","-0.19105","0.426823","-29493.462891","-31720.958984",
"47.292","83960.53125","0.800206","-0.155488","0.607421","-22571.167969","-39632.050781",
"47.344","83960.53125","0.815678","-0.277981","0.599526","-22439.732422","-39675.28125",
"47.395","86896.640625","0.710469","-0.251309","0.267936","-9602.816406","-44473.8125",
"47.446","86779.1875","0.728004","-0.340215","0.720912","-9515.191406","-44473.8125",
"47.497","77383.671875","0.681588","-0.367875","0.641962","-1804.279785","-46548.851562",
"47.548","77266.234375","0.670242","-0.438012","0.673542","-1760.467773","-46548.851562",
"47.599","68575.375","0.622795","-0.451842","0.652818","5205.640137","-49358.800781",
"47.65","68340.484375","0.617638","-0.549639","0.687358","5249.452637","-49358.800781",
"47.7","45908.6875","0.496957","-0.539761","0.713017","13267.048828","-51433.839844",
"47.751","45673.796875","0.469108","-0.614838","0.582749","13310.861328","-51433.839844",
"47.801","29818.851562","0.406189","-0.531858","0.823547","17954.933594","-51649.992188",
"47.852","29701.40625","0.382465","-0.680036","0.593605","17954.933594","-51649.992188",
"47.903","18896.5625","0.242187","-0.529882","0.815652","20802.712891","-51909.371094",
"47.954","18779.117188","0.226715","-0.543712","0.563999","20802.712891","-51866.140625",
"48.005","13729.023438","0.171016","-0.614838","0.808744","22336.132812","-50396.320312",
"48.056","13611.578125","0.156576","-0.744246","0.704135","22336.132812","-50396.320312",
"48.107","10088.257812","0.123569","-0.649412","0.720912","25753.470703","-50396.320312",
"48.158","9970.8125","0.081279","-0.695841","0.765321","25753.470703","-50396.320312",
"48.21","2806.734375","0.038989","-0.699793","0.669594","27286.888672","-50396.320312",
"48.261","2689.289062","-0.037339","-0.677072","0.770256","27286.888672","-50353.089844",
"48.311","1397.40625","-0.019804","-0.694853","0.69624","29871.798828","-49877.5625",
"48.362","1279.960938","-0.068283","-0.638546","0.652818","29871.798828","-49877.5625",
"48.413","575.296875","-0.065188","-0.716586","0.71203","30923.283203","-50396.320312",
"48.463","457.851562","-0.118824","-0.72844","0.661699","30923.283203","-50353.089844",
"48.514","-2360.804688","-0.08788","-0.661266","0.718938","31974.771484","-49618.179688",
"48.565","-2478.25","-0.148736","-0.745234","0.645909","31974.771484","-49618.179688",
"48.616","-5296.90625","-0.129139","-0.775857","0.844271","32763.388672","-49618.179688",
"48.667","-5296.90625","-0.170397","-0.710659","0.598539","32719.576172","-49618.179688",
"48.718","-3065.46875","-0.201341","-0.674108","0.776177","32500.517578","-49618.179688",
"48.768","-3065.46875","-0.244662","-0.722513","0.598539","32500.517578","-49574.949219",
"48.819","-3065.46875","-0.227127","-0.666206","1.021909","35085.421875","-49099.421875",
"48.87","-3065.46875","-0.280763","-0.740294","0.756439","35085.421875","-49056.191406",
"48.921","-1538.695312","-0.382878","-0.614838","0.615316","35611.167969","-48840.039062",
"48.972","-1656.140625","-0.422073","-0.594093","0.724859","35611.167969","-48796.8125",
"49.023","-3770.132812","-0.441671","-0.526919","0.575841","37670.332031","-48321.28125",
"49.074","-3770.132812","-0.416916","-0.668181","0.811704","37670.332031","-48278.050781",
"49.125","-129.367188","-0.457143","-0.545688","0.572881","39510.433594","-47845.75",
"49.176","-129.367188","-0.451986","-0.654351","0.713017","39510.433594","-47802.519531",
"49.227","3511.398438","-0.508716","-0.63657","0.669594","40561.921875","-46548.851562",
"49.278","3393.953125","-0.494275","-0.560506","0.605448","40561.921875","-46505.621094",
"49.329","2806.734375","-0.548943","-0.487405","0.675516","42095.34375","-46289.472656",
"49.38","2806.734375","-0.585044","-0.662254","0.693279","42095.34375","-46289.472656",
"49.431","2806.734375","-0.60361","-0.49432","0.573868","42358.214844","-46548.851562",
"49.482","2689.289062","-0.445797","-0.428134","0.644923","42358.214844","-46505.621094",
"49.533","1279.960938","-0.516968","-0.212783","0.546235","43146.832031","-46030.089844",
"49.583","1279.960938","-0.621145","-0.739307","0.519589","43146.832031","-45986.859375",
"49.634","2806.734375","-0.535534","-0.66423","0.646896","44198.320312","-45770.710938",
"49.684","2689.289062","-0.713976","-0.408377","0.499852","44198.320312","-45770.710938",
"49.734","-3065.46875","-0.68819","-0.479502","0.586697","44461.191406","-46030.089844",
"49.785","-3182.914062","-0.588138","-0.515065","0.440639","44461.191406","-45986.859375",
"49.836","-3770.132812","-0.763486","-0.67806","0.416955","46257.484375","-45511.332031",
"49.888","-3887.578125","-0.736668","-0.473575","0.442613","46257.484375","-45468.101562",
"49.939","-6706.234375","-0.82228","-0.211795","0.374519","48316.648438","-45251.949219",
"49.99","-6823.679688","-0.82228","-0.433073","0.340965","48360.460938","-45208.722656",
"50.041","-18450.632812","-0.864569","-0.433073","0.252146","53530.273438","-43738.902344",
"50.091","-18568.078125","-0.853223","-0.431098","0.305438","53530.273438","-43695.671875",
"50.143","-26436.820312","-0.913048","-0.387632","0.265963","54844.636719","-43479.519531",
"50.193","-26554.265625","-0.943992","-0.366887","0.20379","54844.636719","-43436.292969",
"50.244","-29372.921875","-0.901702","-0.358985","0.248199","55633.25","-42182.621094",
"50.295","-29490.367188","-0.94296","-0.367875","0.085365","55633.25","-42139.390625",
"50.346","-37476.558594","-0.958432","-0.320458","-0.067601","56640.925781","-41404.480469",
"50.398","-37594.003906","-0.949149","-0.351082","0.039968","56640.925781","-41361.25",
"50.449","-46989.523438","-0.882104","-0.378741","-0.169249","56640.925781","-40626.339844",
"50.5","-47224.410156","-0.976998","-0.34713","-0.25116","56597.113281","-40583.109375",
"50.551","-60143.25","-0.905828","-0.2602","-0.335044","55852.3125","-40410.191406",
"50.602","-60260.695312","-0.870758","-0.245382","-0.42485","55808.5","-40366.960938",
"50.654","-71770.203125","-0.817122","-0.226613","-0.458403","55633.25","-39113.292969",
"50.705","-71887.65625","-0.792367","-0.184135","-0.573868","55589.4375","-39070.0625",
"50.756","-82809.945312","-0.696441","-0.228588","-0.643936","54318.890625","-36043.960938",
"50.807","-82927.390625","-0.741826","0.037143","-0.763348","54275.078125","-36000.730469",
"50.858","-94906.679688","-0.655183","-0.012249","-0.773216","51953.042969","-33709.542969",
"50.909","-124385.117188","-0.672718","0.017386","-0.726833","51909.230469","-33666.3125",
"50.96","-103127.757812","-0.58917","-0.023116","-0.697227","49368.136719","-31158.970703",
"51.012","-107590.625","-0.56132","-0.026079","-0.819599","49324.324219","-31158.970703",
"51.064","-107590.625","-0.532439","0.053937","-0.766308","46783.226562","-31375.119141",
"51.116","-110526.726562","-0.50459","-0.209819","-0.880786","46739.414062","-29862.068359",
"51.168","-110526.726562","-0.441671","0.071718","-0.912366","44636.4375","-29818.837891",
"51.22","-114872.15625","-0.161114","-0.054727","-0.834402","41832.472656","-27830.259766",
"51.273","-114872.15625","-0.443734","0.400672","-0.891641","41788.660156","-27787.029297",
"51.325","-116281.484375","-0.307581","0.185321","-0.936051","41569.597656","-25020.308594",
"51.377","-116281.484375","-0.295204","0.188284","-0.495904","41525.785156","-25020.308594",
"51.429","-117103.59375","-0.2787","0.266324","-0.966644","38458.945312","-25539.068359",
"51.482","-117103.59375","-0.20753","0.197175","-0.877825","38415.136719","-25495.839844",
"51.533","-117808.257812","-0.176586","0.45204","-0.873877","37933.203125","-23464.029297",
"51.584","-117808.257812","-0.192058","0.22681","-1.029804","37889.390625","-23420.798828",
"51.637","-117808.257812","-0.111604","0.269288","-0.944932","36662.65625","-22685.888672",
"51.688","-117808.257812","-0.151831","0.237677","-0.896576","36618.84375","-22642.660156",
"51.741","-117808.257812","-0.199278","0.36017","-0.928156","35611.167969","-21691.599609",
"51.792","-117808.257812","-0.145642","0.335474","-0.816639","35567.355469","-21648.369141",
"51.844","-119217.585938","-0.155957","0.441174","-0.950854","34559.679688","-18838.419922",
"51.895","-119217.585938","-0.10851","0.374","-0.848219","34515.867188","-18795.189453",
"51.947","-119217.585938","-0.143579","0.49353","-0.886707","33508.191406","-17584.75",
"51.998","-119100.140625","-0.096132","0.436234","-0.699201","33464.378906","-17541.519531",
"52.049","-117808.257812","-0.070346","0.577497","-0.807757","33289.132812","-15250.330078",
"52.1","-117808.257812","0.028675","0.553788","-0.816639","33245.320312","-15207.099609",
"52.152","-118512.921875","-0.136359","0.614047","-0.826507","32237.646484","-12181",
"52.203","-118395.476562","-0.022898","0.535019","-0.682424","32193.833984","-12137.769531",
"52.254","-116281.484375","-0.064157","0.700978","-0.800849","31449.029297","-10149.189453",
"52.305","-116164.039062","0.054461","0.612072","-0.711043","31405.216797","-10105.958984",
"52.357","-114872.15625","0.0328","0.71382","-0.706109","30397.541016","-8074.149902",
"52.408","-114754.710938","0.095719","0.723698","-0.684398","30353.728516","-8030.92041",
"52.459","-111936.054688","0.055493","0.714808","-0.627159","29389.865234","-6561.100098",
"52.511","-111818.609375","0.121506","0.772103","-0.582749","29346.052734","-6517.869629",
"52.561","-108295.289062","0.074059","0.746419","-0.626172","27812.634766","-3751.149902",
"52.612","-108177.84375","0.128726","0.870888","-0.553143","27768.822266","-3707.919922",
"52.663","-107590.625","0.105003","0.707893","-0.652818","27024.017578","-3491.77002",
"52.714","-107473.1875","0.129758","0.921268","-0.480114","26980.205078","-3448.540039",
"52.765","-103949.867188","0.176173","0.865949","-0.400178","26016.341797","-422.439941",
"52.816","-103832.421875","0.198865","0.958807","-0.193921","25972.529297","-379.209961",
"52.866","-95259.007812","0.205054","0.920281","-0.31728","24964.853516","2430.73999",
"52.917","-95141.5625","0.225683","0.917317","-0.152472","24921.041016","2473.969971",
"52.968","-82809.945312","0.246313","0.958807","-0.08043","24176.236328","5759.450195",
"53.019","-82692.5","0.225683","0.893609","0.050824","24132.425781","5759.450195",
"53.07","-67424.78125","0.256627","0.95288","0.158393","22599.005859","8310.019531",
"53.12","-67424.78125","0.26591","0.933123","0.20379","22555.193359","8310.019531",
"53.171","-57207.152344","0.25869","0.950904","0.199842","21591.328125","10601.209961",
"53.222","-57089.707031","0.288602","0.886694","0.337018","21547.517578","10601.209961",
"53.273","-44758.085938","0.210211","0.767164","0.276818","21328.457031","11379.349609",
"53.323","-44640.644531","0.291697","1.05364","0.644923","21284.644531","11379.349609",
"53.374","-27258.929688","0.27313","0.81952","0.423863","20276.96875","12416.869141",
"53.425","-27258.929688","0.01836","0.813593","0.701174","20276.96875","12373.640625",
"53.477","-16923.859375","0.240124","0.753334","0.504786","20276.96875","10385.060547",
"53.529","-16923.859375","0.27313","0.716784","0.692293","20276.96875","10385.060547",
"53.58","-11756.320312","0.249407","0.645658","0.523537","20276.96875","10601.209961",
"53.631","-11756.320312","0.264879","0.668379","0.767295","20276.96875","10557.980469",
"53.683","-4474.796875","0.267973","0.624914","0.644923","20539.841797","9866.299805",
"53.733","-4474.796875","0.276225","0.654549","0.858087","20496.029297","9823.070312",
"53.784","-1538.695312","0.302011","0.570582","0.685384","20276.96875","8310.019531",
"53.836","-1421.25","0.26591","0.56663","0.862035","20276.96875","8266.790039",
"53.887","10792.921875","0.180299","0.419441","0.704135","20802.712891","7791.259766",
"53.939","10792.921875","0.237029","0.525141","0.894602","20802.712891","7748.029785",
"53.989","15960.460938","0.269005","0.375975","0.839337","20802.712891","7272.5",
"54.041","15960.460938","0.204023","0.495505","0.928156","20802.712891","7229.269531",
"54.092","19601.226562","0.305106","0.319668","0.848219","20802.712891","4981.310059",
"54.143","19601.226562","0.2164","0.423392","0.946906","20758.900391","4938.080078",
"54.194","22537.328125","0.274162","0.325595","0.828481","20539.841797","3684.409912",
"54.245","22537.328125","0.204023","0.339425","0.892628","20539.841797","3641.179932",
"54.295","27704.859375","0.241155","0.407587","0.908418","21328.457031","3165.649902",
"54.346","27704.859375","0.222589","0.285093","0.898549","21328.457031","3165.649902",
"54.397","31345.625","0.255596","0.390793","0.9173","21854.201172","2430.73999",
"54.448","31345.625","0.288602","0.313741","0.98046","21810.388672","2430.73999",
"54.499","32050.289062","0.252501","0.34634","0.899536","21591.328125","1652.599976",
"54.55","32050.289062","0.245281","0.189272","0.914339","21591.328125","1652.599976",
"54.601","32050.289062","0.280351","0.245579","0.932103","21591.328125","1393.219971",
"54.652","32050.289062","0.289634","0.149758","0.875851","21547.517578","1393.219971",
"54.703","33577.0625","0.253533","0.136916","0.935064","21328.457031","-163.060059",
"54.754","33577.0625","0.386591","0.085548","0.744597","21284.644531","-163.060059",
"54.804","37922.484375","0.224652","0.136916","1.074213","21065.583984","-897.969971",
"54.854","37922.484375","0.441258","0.036155","1.019935","21021.773438","-897.969971",
"54.904","40153.921875","0.275193","-0.131779","0.99625","19488.353516","-4226.680176",
"54.954","40153.921875","0.381434","0.022325","1.003158","19444.541016","-4226.680176",
"55.004","46026.125","0.361836","-0.272054","0.906444","18962.609375","-8333.529297",
"55.054","46026.125","0.362867","0.028252","0.949867","18918.796875","-8376.759766",
"55.105","48844.78125","0.38556","-0.459745","0.915326","16903.445312","-13737.279297",
"55.156","48844.78125","0.354616","-0.21871","0.88572","16903.445312","-13737.279297",
"55.207","50371.546875","0.362867","-0.193026","0.950854","17166.316406","-14256.039062",
"55.258","50254.109375","0.376276","-0.060654","0.911379","17122.503906","-14256.039062",
"55.309","48844.78125","0.35049","-0.247358","0.852166","16114.828125","-17065.990234",
"55.36","48727.34375","0.389685","-0.201916","0.930129","16114.828125","-17065.990234",
"55.411","47435.453125","0.345333","-0.175244","0.94888","16377.701172","-17844.128906",
"55.461","47318.015625","0.411346","-0.372814","0.52255","16333.888672","-17844.128906",
"55.512","46026.125","0.361836","-0.16339","0.96467","16114.828125","-19357.179688",
"55.562","46026.125","0.328829","-0.354045","0.834402","16114.828125","-19357.179688",
"55.613","48140.109375","0.310263","-0.362936","0.828481","16377.701172","-21172.839844",
"55.664","48022.671875","0.426818","-0.379729","0.871904","16333.888672","-21172.839844",
"55.715","46730.78125","0.363899","-0.40245","0.853153","15326.212891","-23982.789062",
"55.767","46613.34375","0.409283","-0.43011","0.808744","15282.400391","-23982.789062",
"55.818","42267.921875","0.358742","-0.441964","0.753479","15063.341797","-26273.978516",
"55.869","42267.921875","0.39278","-0.435049","0.794927","15019.529297","-26273.978516",
"55.92","42972.578125","0.417535","-0.542724","0.801836","14318.537109","-28089.638672",
"55.971","42855.140625","0.386591","-0.574336","0.677489","14274.724609","-28132.869141",
"56.022","37922.484375","0.43507","-0.577299","0.640975","13267.048828","-32715.248047",
"56.073","37805.046875","0.403094","-0.625704","0.579789","13267.048828","-32715.248047",
"56.124","32754.953125","0.379371","-0.660279","0.674529","13267.048828","-34747.0625",
"56.175","32637.507812","0.428881","-0.67806","0.671568","13223.236328","-34747.0625",
"56.227","30523.515625","0.420629","-0.615825","0.607421","11952.689453","-37038.25",
"56.278","30406.070312","0.428881","-0.964536","0.587684","11952.689453","-37038.25",
"56.329","25473.421875","0.425786","-0.659291","0.539327","12215.560547","-38335.152344",
"56.38","25355.976562","0.396906","-0.745234","0.400178","12171.748047","-38335.152344",
"56.43","18896.5625","0.473234","-0.645461","0.479128","11689.816406","-40885.722656",
"56.481","18779.117188","0.481485","-0.869703","0.513668","11646.003906","-40885.722656",
"56.532","8678.929688","0.510366","-0.826237","0.231422","10945.013672","-41923.242188",
"56.583","8444.046875","0.502114","-0.849946","0.231422","10901.201172","-41923.242188",
"56.634","-8233","0.580505","-0.833152","0.150498","9104.908203","-44733.191406",
"56.684","-8467.890625","0.226715","-1.00405","-0.040955","9061.095703","-44733.191406",
"56.735","-24205.390625","0.579474","-0.893411","-0.044903","7571.48877","-45511.332031",
"56.785","-24440.273438","0.489737","-0.907241","-0.191947","7571.48877","-45511.332031",
"56.837","-40295.214844","0.540278","-0.837104","-0.072535","8316.292969","-45770.710938",
"56.888","-40530.105469","0.472202","-0.879581","-0.261028","8316.292969","-45727.480469",
"56.938","-60143.25","0.502114","-0.817347","-0.3459","9104.908203","-45251.949219",
"56.989","-60260.695312","0.411346","-0.992196","-0.359716","9104.908203","-45208.722656",
"57.04","-66720.117188","0.427849","-0.801541","-0.255107","9893.525391","-43479.519531",
"57.091","-66837.5625","0.376276","-0.764003","-0.439653","9893.525391","-43436.292969",
"57.142","-78464.515625","0.366993","-0.846982","-0.447548","12215.560547","-41663.859375",
"57.193","-78581.960938","0.323672","-0.754124","-0.497878","12215.560547","-41620.632812",
"57.244","-83514.609375","0.312326","-0.794626","-0.542288","13004.177734","-40626.339844",
"57.295","-83632.054688","0.294791","-0.891435","-0.273858","13004.177734","-40583.109375",
"57.346","-89386.804688","0.321609","-0.656327","-0.689332","13529.919922","-39632.050781",
"57.397","-89504.25","0.143167","-0.881557","-0.758413","13529.919922","-39588.820312",
"57.449","-97373","0.278288","-0.393559","-0.756439","13792.792969","-37038.25",
"57.501","-97373","0.187519","-0.642497","-0.549196","13792.792969","-36995.019531",
"57.553","-100191.65625","0.169985","-0.562481","-0.904471","16377.701172","-35525.199219",
"57.604","-100191.65625","0.179268","-0.596068","-0.757426","16377.701172","-35481.972656",
"57.655","-104654.53125","0.136978","-0.524943","-0.887694","17954.933594","-34228.300781",
"57.706","-104654.53125","0.192677","-0.532846","-0.826507","17911.121094","-34185.070312",
"57.757","-107590.625","0.1246","-0.575324","-0.809731","17166.316406","-32455.869141",
"57.808","-107590.625","0.119443","-0.448879","-0.987368","17166.316406","-32412.638672",
"57.859","-108999.953125","0.119443","-0.422207","-0.797888","17429.189453","-32196.490234",
"57.911","-108999.953125","0.00392","-0.483454","-0.846245","17429.189453","-32153.259766",
"57.962","-111231.390625","0.151418","-0.400474","-0.987368","18217.804688","-28608.398438",
"58.013","-111231.390625","0.055493","-0.332313","-0.973552","18217.804688","-28565.169922",
"58.064","-114872.15625","0.05343","-0.345155","-0.880786","20539.841797","-28089.638672",
"58.115","-114754.710938","0.026612","-0.353057","-0.855127","20496.029297","-28046.410156",
"58.166","-112640.71875","0.049304","-0.022128","-0.975525","18217.804688","-26057.830078",
"58.218","-112640.71875","0.020423","-0.210807","-0.966644","18217.804688","-26014.599609",
"58.269","-113462.828125","-0.022898","-0.3333","-0.919274","20014.097656","-23204.648438",
"58.32","-113462.828125","-0.000206","-0.135731","-0.958749","19970.285156","-23204.648438",
"58.371","-113462.828125","-0.01671","-0.261187","-1.237047","19751.224609","-23723.410156",
"58.423","-113462.828125","-0.060031","-0.167342","-1.117635","19751.224609","-23680.179688",
"58.475","-116281.484375","-0.050748","-0.205868","-0.626172","20539.841797","-23204.648438",
"58.526","-116281.484375","-0.132233","-0.137706","-1.1729","20539.841797","-23204.648438",
"58.577","-116398.929688","-0.114698","-0.119925","-0.894602","21328.457031","-23982.789062",
"58.628","-116398.929688","-0.170397","-0.178208","-0.946906","21328.457031","-23939.558594",
"58.68","-116986.148438","-0.220939","-0.029043","-0.861048","22379.945312","-21388.990234",
"58.732","-115576.820312","-0.305518","-0.001383","-0.884733","22379.945312","-20394.699219",
"58.783","-115576.820312","-0.316864","-0.074484","-0.950854","25052.476562","-20351.46875",
"58.834","-119217.585938","-0.334399","-0.012249","-0.937037","36093.097656","-17584.75",
"58.885","-119100.140625","-0.415884","0.025289","-0.940985","27549.759766","-17541.519531",
"58.936","-117808.257812","-0.395255","0.02924","-0.814665","27549.759766","-15769.089844",
"58.987","-117808.257812","-0.471583","0.067766","-0.910392","29871.798828","-15769.089844",
"59.038","-118512.921875","-0.484992","-0.203892","-0.733741","31974.771484","-16287.849609",
"59.089","-118395.476562","-0.547911","0.07073","-0.900523","31974.771484","-16244.619141",
"59.14","-117808.257812","-0.538628","0.09839","-0.72782","35348.296875","-15250.330078",
"59.192","-117690.8125","-0.598453","0.101353","-0.678476","35348.296875","-15207.099609",
"59.244","-116281.484375","-0.684064","0.144819","-0.820586","37407.460938","-13477.900391",
"59.297","-116164.039062","-0.651057","0.14877","-0.587684","37407.460938","-13434.669922",
"59.349","-111231.390625","-0.719134","0.317692","-0.521563","39510.433594","-11662.240234",
"59.4","-111113.945312","-0.516968","0.322632","-0.553143","39554.246094","-11619.009766",
"59.453","-108295.289062","-0.720165","0.274227","-0.517616","44198.320312","-10149.189453",
"59.505","-108177.84375","-0.795462","0.374988","-0.553143","44198.320312","-10105.958984",
"59.557","-103127.757812","-0.726354","0.279166","-0.452482","44680.25","-7814.77002",
"59.608","-103010.3125","-0.835688","0.480688","-0.468272","44680.25","-7771.539551",
"59.66","-98077.664062","-0.729448","0.292008","-0.296556","45994.609375","-5782.960449",
"59.711","-97960.21875","-0.901702","0.618986","-0.389322","45994.609375","-5739.72998",
"59.762","-92322.90625","-0.765549","0.399684","-0.21958","47834.714844","-4486.060059",
"59.812","-92322.90625","-0.8295","0.590339","-0.323201","47834.714844","-4442.830078",
"59.863","-88682.140625","-0.764518","0.477724","-0.240304","48360.460938","-2713.629883",
"59.914","-88682.140625","-0.892419","0.714808","-0.012336","48360.460938","-2670.399902",
"59.965","-85746.046875","-0.774832","0.423392","-0.274845","49631.007812","-897.969971",
"60.016","-85746.046875","-0.766581","0.59429","-0.232409","49631.007812","-854.73999",
"60.067","-78347.070312","-0.786178","0.613059","0.049837","49893.878906","-638.590088",
"60.117","-78347.070312","-0.800619","0.596266","-0.072535","49893.878906","-595.360107",
"60.168","-76233.078125","-0.811965","0.595278","-0.004441","50682.496094","1133.839966",
"60.219","-76115.640625","-0.75936","0.598242","0.106089","50682.496094","1177.069946",
"60.269","-57911.816406","-0.789273","0.696039","0.147538","52215.914062","2690.119873",
"60.32","-57911.816406","-0.696441","0.541934","0.162341","52172.101562","2733.349854",
"60.371","-51334.953125","-0.785147","0.717771","0.169249","51996.855469","4462.549805",
"60.422","-51334.953125","-0.674781","0.628865","0.372545","51953.042969","4462.549805",
"60.472","-41821.988281","-0.727385","0.743455","0.510708","51733.984375","5500.069824",
"60.523","-41821.988281","-0.646931","0.589351","0.34886","51733.984375","5500.069824",
"60.573","-33013.6875","-0.673749","0.691099","0.338005","52478.789062","6018.830078",
"60.623","-33013.6875","-0.586075","0.558728","0.518603","52434.976562","6018.830078",
"60.674","-25027.492188","-0.595358","0.661464","0.510708","52215.914062","6796.969727",
"60.724","-25027.492188","-0.521093","0.542922","0.624198","52172.101562","6753.739746",
"60.775","-14692.421875","-0.588138","0.640719","0.614329","51733.984375","6018.830078",
"60.826","-14692.421875","-0.476741","0.518226","0.678476","51690.171875","5975.599609",
"60.877","-4474.796875","-0.481898","0.560703","1.016974","50945.367188","5500.069824",
"60.927","-4474.796875","-0.454048","0.498469","0.590644","50901.554688","5456.839844",
"60.977","1397.40625","-0.471583","0.539959","0.663673","50156.75","5240.689941",
"61.027","1397.40625","-0.460237","0.539959","0.769269","50156.75","5240.689941",
"61.078","6447.5","-0.467457","0.572558","0.709069","51208.238281","5500.069824",
"61.128","6447.5","-0.340588","0.48859","0.827494","51164.425781","5456.839844",
"61.178","13024.359375","-0.355028","0.45204","0.724859","49105.261719","4203.169922",
"61.229","13024.359375","-0.291078","0.508347","0.877825","49061.449219","4159.939941",
"61.28","19601.226562","-0.279732","0.383878","0.812691","48097.585938","3684.409912",
"61.33","19601.226562","-0.265291","0.505384","0.884733","48053.773438","3641.179932",
"61.381","24064.09375","-0.240536","0.439198","0.864009","46783.226562","2690.119873",
"61.432","24064.09375","-0.210624","0.421417","0.867956","46739.414062","2690.119873",
"61.483","29114.1875","-0.159051","0.354243","0.875851","45731.738281","2430.73999",
"61.533","29114.1875","-0.167303","0.416477","0.867956","45731.738281","2430.73999",
"61.585","32872.398438","-0.129139","0.377951","0.977499","45994.609375","1911.979858",
"61.637","32872.398438","-0.095101","0.315717","0.90151","45950.800781","1911.979858",
"61.688","37217.828125","-0.100258","0.415489","1.013027","44461.191406","1133.839966",
"61.739","37217.828125","-0.049716","0.255458","0.936051","44461.191406","1133.839966",
"61.79","38627.15625","-0.072408","0.399684","1.025856","44461.191406","96.319824",
"61.841","38627.15625","0.024549","0.17643","0.895589","44417.378906","96.319824",
"61.892","45321.453125","-0.097163","0.511311","0.988355","43146.832031","-1416.72998",
"61.944","45204.015625","0.023517","0.177418","0.906444","43103.019531","-1373.5",
"61.995","44499.359375","-0.071377","0.386842","0.925195","42883.960938","-1157.350098",
"62.047","44499.359375","0.043115","0.193223","0.975525","42840.148438","-1157.350098",
"62.099","49666.890625","0.000825","0.251506","0.962696","41569.597656","-2713.629883",
"62.151","49666.890625","0.061681","0.113208","0.931116","41525.785156","-2713.629883",
"62.202","53307.65625","0.10294","0.137904","1.004145","41306.726562","-3491.77002",
"62.253","53307.65625","0.047241","0.273239","0.961709","41262.914062","-3491.77002",
"62.306","56243.75","0.139041","0.085548","1.000197","39773.308594","-6561.100098",
"62.357","56243.75","0.093657","0.197175","0.965657","39729.496094","-6561.100098",
"62.409","56948.421875","0.148324","0.037143","0.891641","39510.433594","-7339.239746",
"62.46","56948.421875","0.15245","0.182357","1.01204","39466.621094","-7339.239746",
"62.51","61411.28125","0.207117","0.07073","0.991315","38196.074219","-8333.529297",
"62.561","61411.28125","0.225683","0.049985","1.03079","38152.261719","-8333.529297",
"62.611","62115.953125","0.25147","0.040107","0.987368","37188.398438","-9889.810547",
"62.661","62115.953125","0.246313","-0.005334","0.921247","37144.585938","-9889.810547",
"62.712","65756.71875","0.287571","-0.008298","1.009079","35348.296875","-11186.708984",
"62.763","65756.71875","0.25147","0.035167","0.944932","35348.296875","-11186.708984",
"62.814","67870.703125","0.263847","0.011459","0.925195","35348.296875","-12440.380859",
"62.865","67870.703125","0.291697","-0.046824","0.887694","35304.484375","-12440.380859",
"62.915","68692.8125","0.322641","-0.037933","0.972565","33508.191406","-14256.039062",
"62.966","68575.375","0.326766","-0.07152","0.957762","33464.378906","-14256.039062",
"63.017","67166.046875","0.338112","-0.049788","0.910392","32763.388672","-14774.798828",
"63.068","67166.046875","0.359773","-0.090289","0.965657","32719.576172","-14774.798828",
"63.119","70806.8125","0.356679","-0.065593","0.867956","31974.771484","-17065.990234",
"63.17","70806.8125","0.39278","-0.111034","0.967631","31974.771484","-17065.990234",
"63.221","71628.921875","0.38556","-0.103131","0.942959","31974.771484","-17584.75",
"63.272","71628.921875","0.378339","-0.087326","0.647883","31930.962891","-17584.75",
"63.323","72333.578125","0.514492","-0.223649","1.096911","30660.412109","-19357.179688",
"63.374","72333.578125","0.470139","-0.133755","0.800849","30616.599609","-19357.179688",
"63.425","72333.578125","0.493863","-0.162402","0.815652","29126.994141","-20654.080078",
"63.475","72333.578125","0.503146","-0.162402","0.791967","29083.181641","-20654.080078",
"63.525","72333.578125","0.591851","-0.308604","0.895589","27286.888672","-23204.648438",
"63.576","72216.140625","0.580505","-0.222661","0.667621","27243.076172","-23247.878906",
"63.627","70806.8125","0.618669","-0.327373","0.907431","25490.595703","-27570.878906",
"63.677","70689.359375","0.637236","-0.292799","0.622224","25446.785156","-27570.878906",
"63.728","69397.484375","0.653739","-0.307616","0.656765","23124.748047","-30640.208984",
"63.779","69280.03125","0.670242","-0.309592","0.651831","23080.9375","-30640.208984",
"63.83","63525.28125","0.720784","-0.308604","0.592618","20539.841797","-32974.632812",
"63.881","63407.84375","0.797112","-0.322434","0.611369","20496.029297","-32974.632812",
"63.932","60589.1875","0.789892","-0.280944","0.634067","18699.736328","-37038.25",
"63.982","60471.734375","0.819804","-0.304653","0.557091","18655.925781","-37038.25",
"64.033","51076.21875","0.855905","-0.361948","0.453469","15326.212891","-40410.191406",
"64.084","50958.765625","0.848685","-0.313543","0.407086","15282.400391","-40410.191406",
"64.135","43090.03125","0.906447","-0.317495","0.497878","14055.664062","-41923.242188",
"64.186","42972.578125","0.898195","-0.238467","0.421889","14011.853516","-41923.242188",
"64.236","34986.390625","0.913667","-0.295762","0.302477","13004.177734","-41923.242188",
"64.287","34868.9375","0.909541","-0.31058","0.341952","12960.365234","-41880.011719",
"64.338","28409.523438","0.927076","-0.275017","0.41202","10156.396484","-40885.722656",
"64.389","28292.078125","0.946674","-0.304653","0.257081","10112.583984","-40842.492188",
"64.44","20305.890625","0.950799","-0.305641","0.221553","8842.037109","-40626.339844",
"64.49","20188.445312","0.919856","-0.2602","0.23833","8798.224609","-40626.339844",
"64.541","17487.234375","1.008561","-0.501235","-0.142603","5994.256348","-40626.339844",
"64.592","17369.789062","1.034348","-0.195989","0.416955","5950.443848","-40626.339844",
"64.643","13024.359375","0.962145","-0.235503","0.29853","3891.280762","-41145.101562",
"64.693","12789.46875","0.97968","-0.294774","-0.177144","3847.468262","-41101.871094",
"64.744","-8115.5625","0.993089","-0.361948","0.019244","2883.604004","-40410.191406",
"64.795","-8233","0.975554","-0.29675","0.074509","2839.79248","-40366.960938",
"64.846","-8937.664062","1.023002","-0.391584","-0.163328","2620.731934","-39372.671875",
"64.897","-9055.109375","0.973491","-0.308604","-0.019244","2576.92041","-39372.671875",
"64.948","-13283.09375","0.964208","-0.314531","-0.139643","2094.987793","-40150.8125",
"64.999","-13400.539062","1.004435","-0.409365","-0.177144","2051.17627","-40107.582031",
"65.05","-24205.390625","0.917793","-0.276993","-0.036021","780.628418","-39372.671875",
"65.101","-24440.273438","0.975554","-0.433073","-0.260041","736.816406","-39329.441406",
"65.152","-39590.550781","0.863125","-0.351082","-0.362676","35.824219","-37297.632812",
"65.203","-39707.996094","0.959051","-0.389608","-0.220566","-7.987793","-37254.402344",
"65.254","-49808.179688","0.843528","-0.387632","-0.284713","-1278.535645","-36562.722656",
"65.305","-49925.625","0.88788","-0.378741","-0.42781","-1278.535645","-36519.492188",
"65.355","-61552.578125","0.890975","-0.383681","-0.326162","-1278.535645","-34487.679688",
"65.406","-61670.023438","0.906447","-0.42517","-0.471233","-1278.535645","-34444.449219",
"65.457","-71065.546875","1.067354","-0.506174","-0.500839","780.628418","-33234.011719",
"65.507","-71182.984375","0.854874","-0.332313","-0.278792","780.628418","-33190.78125",
"65.557","-82105.28125","0.730067","-0.451842","-0.493931","2094.987793","-31937.107422",
"65.608","-82222.726562","0.790923","-0.357009","-0.636041","2094.987793","-31893.880859",
"65.659","-90091.46875","0.747602","-0.537785","-0.449521","4417.023926","-30640.208984",
"65.71","-90208.914062","0.711501","-0.301689","-0.604461","4417.023926","-30596.978516",
"65.76","-95963.671875","0.620732","-0.562481","-0.63308","5731.384277","-28608.398438",
"65.811","-96081.117188","0.692935","-0.294774","-0.579789","5731.384277","-28608.398438",
"65.862","-100191.65625","0.684683","-0.50815","-0.606434","8579.164062","-29645.919922",
"65.913","-100191.65625","0.613512","-0.42517","-0.64887","8579.164062","-29602.689453",
"65.964","-102423.09375","0.59804","-0.520992","-0.683411","9893.525391","-29127.160156",
"66.014","-102423.09375","0.645487","-0.483454","-0.61729","9893.525391","-29127.160156",
"66.065","-104654.53125","0.550593","-0.603971","-0.68045","10156.396484","-29862.068359",
"66.116","-104654.53125","0.592883","-0.439988","-0.630119","10156.396484","-29862.068359",
"66.167","-106063.859375","0.500052","-0.568409","-0.656765","12478.433594","-30640.208984",
"66.218","-105946.414062","0.510366","-0.553591","-0.578802","12478.433594","-30640.208984",
"66.269","-105359.195312","0.496957","-0.626692","-0.577815","13267.048828","-31158.970703",
"66.32","-105359.195312","0.510366","-0.645461","-0.72782","13267.048828","-31158.970703",
"66.371","-105359.195312","0.540278","-0.582238","-0.570907","13529.919922","-33450.160156",
"66.423","-105241.75","0.426818","-0.70572","-0.662686","13529.919922","-33450.160156",
"66.474","-104654.53125","0.494894","-0.672133","-0.558078","14318.537109","-34228.300781",
"66.525","-104537.085938","0.490768","-0.626692","-0.567946","14318.537109","-34228.300781",
"66.576","-102423.09375","0.464982","-0.745234","-0.607421","15063.341797","-34747.0625",
"66.627","-102423.09375","0.433007","-0.666206","-0.535379","15019.529297","-34747.0625",
"66.678","-103127.757812","0.409283","-0.698805","-0.563012","14055.664062","-35784.582031",
"66.729","-103010.3125","0.419598","-0.876618","-0.600513","14055.664062","-35784.582031",
"66.78","-100191.65625","0.441258","-0.730416","-0.6015","14055.664062","-36562.722656",
"66.831","-100074.210938","0.368025","-0.670157","-0.495904","14055.664062","-36562.722656",
"66.882","-97373","0.35771","-0.79265","-0.471233","16114.828125","-38075.769531",
"66.934","-97373","0.311294","-0.79265","-0.495904","16114.828125","-38075.769531",
"66.985","-98077.664062","0.312326","-0.876618","-0.458403","17429.189453","-39891.429688",
"67.036","-97960.21875","0.313357","-0.853897","-0.436692","17429.189453","-39891.429688",
"67.087","-93732.234375","0.239092","-0.829201","-0.428797","18699.736328","-41404.480469",
"67.137","-93732.234375","0.322641","-0.893411","-0.437679","18699.736328","-41404.480469",
"67.188","-89386.804688","0.168953","-1.208535","-0.363663","20539.841797","-42701.382812",
"67.239","-89504.25","0.211243","-0.852909","-0.372545","20496.029297","-42701.382812",
"67.29","-90091.46875","0.069933","-0.895387","-0.292608","20276.96875","-43738.902344",
"67.34","-90091.46875","0.109128","-0.924034","-0.284713","20276.96875","-43738.902344",
"67.391","-87977.484375","-0.247757","-0.841055","-0.240304","22599.005859","-45770.710938",
"67.441","-87977.484375","0.033832","-1.044552","-0.26695","22599.005859","-45770.710938",
"67.491","-84219.273438","0.064776","-0.974415","-0.36169","24964.853516","-47326.992188",
"67.543","-84219.273438","0.023517","-0.985281","-0.231422","24964.853516","-47326.992188",
"67.596","-79873.84375","0.013203","-0.956633","-0.228461","25227.724609","-47845.75",
"67.648","-79873.84375","-0.050748","-0.970463","-0.209711","25227.724609","-47845.75",
"67.7","-76937.742188","-0.077566","-0.934901","-0.133722","26761.146484","-49099.421875",
"67.752","-76937.742188","-0.110572","-0.999111","-0.09622","26761.146484","-49099.421875",
"67.804","-73296.984375","-0.13017","-1.035661","-0.135695","28601.248047","-49618.179688",
"67.856","-73296.984375","-0.126044","-1.058382","-0.038982","28601.248047","-49618.179688",
"67.908","-66720.117188","-0.135327","-0.907241","0.092273","30397.541016","-50396.320312",
"67.959","-66720.117188","-0.118824","-0.916132","0.106089","30397.541016","-50396.320312",
"68.01","-59438.589844","-0.148736","-1.012941","0.113984","30660.412109","-51433.839844",
"68.061","-59438.589844","-0.17968","-1.000099","0.162341","30660.412109","-51433.839844",
"68.113","-50630.289062","-0.200309","-0.910204","0.142603","31186.158203","-51909.371094",
"68.164","-50630.289062","-0.236411","-0.909217","0.259055","31186.158203","-51909.371094",
"68.215","-48398.851562","-0.256008","-0.915144","0.174183","33289.132812","-52428.132812",
"68.266","-48398.851562","-0.268386","-1.023807","0.197868","33289.132812","-52428.132812",
"68.317","-43231.316406","-0.239505","-0.919095","0.248199","34296.808594","-52428.132812",
"68.368","-43231.316406","-0.291078","-0.934901","0.272871","34296.808594","-52428.132812",
"68.418","-43231.316406","-0.236411","-0.914156","0.338991","34822.550781","-52687.511719",
"68.468","-43231.316406","-0.272512","-0.896375","0.336031","34822.550781","-52644.28125",
"68.519","-37476.558594","-0.236411","-0.935889","0.343926","35874.039062","-52168.75",
"68.569","-37476.558594","-0.239505","-0.794626","0.408073","35830.226562","-52168.75",
