timestamp(ms),Accel_x,Accel_y,Accel_z,Mag_x,Mag_y,Mag_z,
"113.725","-0.056937","-0.072508","1.002171","1077","242","-1318",
"113.771","-0.053842","-0.09918","1.000197","1071","236","-1336",
"113.817","-0.074471","-0.08535","0.970591","1071","236","-1336",
"113.864","-0.067251","-0.070532","0.994276","1071","236","-1336",
"113.909","-0.055905","-0.091277","0.98046","1065","218","-1330",
"113.955","-0.068283","-0.074484","0.975525","1065","218","-1330",
"114.002","-0.03837","-0.097204","1.021909","1077","224","-1324",
"114.048","-0.034244","-0.012249","1.009079","1077","224","-1324",
"114.094","-0.042496","-0.044848","1.001184","1059","212","-1318",
"114.141","-0.049716","-0.060654","0.976512","1059","212","-1318",
"114.188","-0.047653","-0.080411","0.971578","1065","206","-1330",
"114.234","-0.034244","-0.066581","1.011053","1065","206","-1330",
"114.28","-0.033213","-0.063618","1.003158","1083","206","-1300",
"114.326","-0.040433","-0.07152","1.01204","1083","206","-1300",
"114.372","-0.043528","-0.080411","0.985394","1083","206","-1300",
"114.418","-0.049716","-0.083374","0.974539","1053","206","-1318",
"114.465","-0.041465","-0.042873","0.992302","1053","206","-1318",
"114.511","-0.033213","-0.040897","1.006119","1071","201","-1324",
"114.557","-0.037339","-0.092265","1.008092","1071","201","-1324",
"114.604","-0.044559","-0.073496","1.007105","1041","212","-1336",
"114.651","-0.036307","-0.095229","1.041646","1041","212","-1336",
"114.698","-0.042496","-0.066581","1.066318","1065","230","-1349",
"114.743","-0.078597","-0.134743","0.886707","1065","230","-1349",
"114.79","-0.085817","-0.16339","1.007105","1095","289","-1349",
"114.837","-0.098195","-0.135731","0.937037","1095","289","-1349",
"114.884","-0.098195","0.042082","1.272575","1095","289","-1361",
"114.93","-0.098195","-0.167342","1.033751","1100","289","-1361",
"114.976","-0.127076","-0.231552","0.969604","1100","289","-1361",
"115.022","-0.168334","-0.23254","0.994276","1112","301","-1349",
"115.069","-0.164208","-0.184135","0.886707","1112","301","-1349",
"115.115","-0.183806","-0.2602","0.972565","1136","342","-1354",
"115.161","-0.193089","-0.240443","0.971578","1136","342","-1354",
"115.207","-0.189995","-0.288847","0.976512","1154","366","-1361",
"115.253","0.013203","-0.316507","0.896576","1154","366","-1361",
"115.299","-0.25704","-0.316507","0.894602","1189","413","-1349",
"115.345","-0.270449","-0.36096","0.90151","1189","413","-1349",
"115.391","-0.300361","-0.403438","0.772229","1189","413","-1349",
"115.437","-0.324085","-0.436037","0.784072","1219","479","-1349",
"115.484","-0.302424","-0.436037","0.876838","1219","479","-1349",
"115.53","-0.322022","-0.451842","0.873877","1231","508","-1336",
"115.576","-0.324085","-0.461721","0.840324","1231","508","-1336",
"115.623","-0.326147","-0.471599","0.813678","1248","549","-1336",
"115.67","-0.362249","-0.581251","0.741636","1248","549","-1336",
"115.716","-0.36328","-0.546676","0.801836","1260","597","-1312",
"115.763","-0.297267","-0.588166","0.874864","1260","597","-1312",
"115.809","-0.352965","-0.491356","0.649857","1254","662","-1312",
"115.855","-0.371532","-0.591129","0.645909","1254","662","-1312",
"115.901","-0.37772","-0.654351","0.670581","1254","662","-1288",
"115.947","-0.378752","-0.704732","0.661699","1278","703","-1288",
"115.993","-0.371532","-0.648424","0.683411","1278","703","-1288",
"116.04","-0.389067","-0.646449","0.616303","1296","739","-1281",
"116.086","-0.406601","-0.677072","0.564986","1296","739","-1281",
"116.132","-0.39835","-0.746221","0.570907","1302","792","-1251",
"116.179","-0.403507","-0.74227","0.590644","1302","792","-1251",
"116.226","-0.395255","-0.734367","0.584723","1284","822","-1233",
"116.272","-0.413822","-0.674108","0.558078","1284","822","-1233",
"116.318","-0.417947","-0.739307","0.521563","1307","839","-1226",
"116.365","-0.421042","-0.757088","0.487023","1307","839","-1226",
"116.411","-0.432388","-0.774869","0.265963","1319","875","-1214",
"116.457","-0.436514","-0.7561","0.462351","1319","875","-1214",
"116.504","-0.437545","-0.786723","0.420902","1319","875","-1214",
"116.55","-0.461269","-0.81142","0.373532","1361","922","-1172",
"116.596","-0.468489","-0.812407","0.294582","1361","922","-1172",
"116.642","-0.472615","-0.88452","0.302477","1355","952","-1135",
"116.688","-0.475709","-0.832164","0.310372","1355","952","-1135",
"116.735","-0.461269","-0.817347","0.362676","1378","963","-1117",
"116.782","-0.492212","-0.800553","0.514655","1378","963","-1117",
"116.828","-0.492212","-0.835128","0.312346","1384","975","-1086",
"116.875","-0.507684","-0.855873","0.243265","1384","975","-1086",
"116.922","-0.774832","-0.788699","0.201816","1396","1034","-1049",
"116.969","-0.535534","-0.864763","0.12484","1396","1034","-1049",
"117.016","-0.541723","-0.781784","0.085365","1396","1034","-1049",
"117.062","-0.551006","-0.800553","0.049837","1432","1058","-989",
"117.108","-0.56132","-0.774869","0.036021","1432","1058","-989",
"117.155","-0.540691","-0.867727","0.067601","1449","1064","-958",
"117.201","-0.571635","-0.842043","0.037008","1449","1064","-958",
"117.247","-0.543785","-0.925022","0.144577","1426","1076","-964",
"117.294","-0.516968","-0.739307","0.227475","1426","1076","-964",
"117.341","-0.533471","-0.881557","0.198855","1402","1070","-988",
"117.388","-0.565446","-0.81142","0.072535","1402","1070","-988",
"117.434","-0.602579","-0.828213","-0.074509","1426","1070","-940",
"117.48","-0.644868","-0.741282","-0.139643","1426","1070","-940",
"117.527","-0.641774","-0.726465","-0.173196","1426","1070","-830",
"117.574","-0.628365","-0.751161","-0.153459","1497","1076","-830",
"117.621","-0.634554","-0.745234","-0.142603","1497","1076","-830",
"117.668","-0.630428","-0.837104","-0.122866","1485","1088","-787",
"117.715","-0.651057","-0.733379","-0.228461","1485","1088","-787",
"117.762","-0.651057","-0.693865","-0.242278","1497","1088","-775",
"117.808","-0.673749","-0.72844","-0.253133","1497","1088","-775",
"117.854","-0.675812","-0.625704","-0.275831","1532","1070","-714",
"117.901","-0.672718","-0.699793","-0.283726","1532","1070","-714",
"117.947","-0.692316","-0.673121","-0.306425","1514","1064","-708",
"117.993","-0.671686","-0.657315","-0.302477","1514","1064","-708",
"118.039","-0.687158","-0.646449","-0.292608","1520","1040","-683",
"118.085","-0.689221","-0.556554","-0.373532","1520","1040","-683",
"118.132","-0.689221","-0.676084","-0.367611","1520","1040","-683",
"118.178","-0.694379","-0.588166","-0.430771","1544","1058","-622",
"118.225","-0.674781","-0.477526","-0.435705","1544","1058","-622",
"118.271","-0.712945","-0.574336","-0.509721","1568","1029","-586",
"118.318","-0.708819","-0.550627","-0.419915","1568","1029","-586",
"118.365","-0.700567","-0.309592","-0.413007","1568","1017","-524",
"118.411","-0.70263","-0.71461","-0.502813","1568","1017","-524",
"118.457","-0.678907","-0.500247","-0.472219","1580","1011","-506",
"118.504","-0.704693","-0.473575","-0.570907","1580","1011","-506",
"118.551","-0.701599","-0.42517","-0.591631","1579","993","-463",
"118.597","-0.671686","-0.460733","-0.80677","1579","993","-463",
"118.643","-0.664466","-0.386644","-0.642949","1579","993","-463",
"118.689","-0.684064","-0.378741","-0.563012","1591","969","-408",
"118.735","-0.671686","-0.376766","-0.625185","1591","969","-408",
"118.781","-0.682001","-0.367875","-0.613343","1585","952","-402",
"118.827","-0.663435","-0.382693","-0.605448","1585","952","-402",
"118.873","-0.657246","-0.342191","-0.679463","1579","993","-366",
"118.919","-0.665498","-0.331325","-0.581763","1579","993","-366",
"118.965","-0.662403","-0.325398","-0.708082","1591","958","-372",
"119.011","-0.68819","-0.288847","-0.628146","1591","958","-372",
"119.057","-0.692316","-0.207844","-0.616303","1568","952","-329",
"119.104","-0.689221","-0.208831","-0.694266","1568","952","-329",
"119.15","-0.676844","-0.19105","-0.667621","1568","952","-329",
"119.196","-0.694379","-0.137706","-0.686371","1591","904","-305",
"119.243","-0.68819","-0.133755","-0.721899","1591","904","-305",
"119.289","-0.700567","-0.097204","-0.654791","1574","893","-286",
"119.335","-0.682001","-0.092265","-0.695253","1574","893","-286",
"119.382","-0.692316","-0.059666","-0.710056","1597","857","-286",
"119.428","-0.711913","-0.063618","-0.668608","1597","857","-286",
"119.474","-0.689221","-0.039909","-0.708082","1597","851","-262",
"119.521","-0.70263","-0.022128","-0.698214","1597","851","-262",
"119.568","-0.707788","-0.006322","-0.705122","1603","845","-250",
"119.615","-0.701599","-0.017189","-0.689332","1603","845","-250",
"119.661","-0.696441","-0.012249","-0.689332","1603","845","-250",
"119.707","-0.700567","0.012447","-0.711043","1597","827","-256",
"119.754","-0.725322","0.012447","-0.66466","1597","827","-256",
"119.8","-0.712945","0.024301","-0.703148","1597","827","-250",
"119.847","-0.716039","0.005532","-0.663673","1597","827","-250",
"119.893","-0.724291","-0.003359","-0.732754","1603","827","-250",
"119.939","-0.732543","0.009483","-0.678476","1603","827","-250",
"119.986","-0.733574","-0.022128","-0.63308","1615","822","-244",
"120.032","-0.690253","0.002568","-0.653804","1615","822","-244",
"120.078","-0.728417","0.01541","-0.639988","1615","845","-244",
"120.124","-0.719134","0.032204","-0.682424","1615","845","-244",
"120.17","-0.721196","0.028252","-0.657752","1615","845","-244",
"120.216","-0.719134","0.009483","-0.689332","1597","822","-244",
"120.262","-0.738731","0.032204","-0.629133","1597","822","-244",
"120.307","-0.740794","0.075669","-0.688345","1621","822","-244",
"120.353","-0.716039","0.0569","-0.669594","1621","822","-244",
"120.4","-0.719134","0.094438","-0.709069","1591","804","-244",
"120.446","-0.70263","0.089499","-0.704135","1591","804","-244",
"120.493","-0.736668","0.085548","-0.693279","1591","804","-244",
"120.539","-0.743889","0.061839","-0.638014","1591","804","-244",
"120.584","-0.724291","0.080609","-0.671568","1597","792","-225",
"120.631","-0.713976","0.060852","-0.654791","1597","792","-225",
"120.677","-0.754203","0.090487","-0.662686","1597","792","-225",
"120.723","-0.725322","0.074681","-0.645909","1627","798","-219",
"120.769","-0.753172","0.065791","-0.632093","1627","798","-219",
"120.815","-0.722228","0.288057","-0.644923","1597","827","-232",
"120.861","-0.768644","0.052949","-0.641962","1597","827","-232",
"120.907","-0.775864","0.095426","-0.671568","1609","827","-232",
"120.953","-0.756266","0.094438","-0.658739","1609","827","-232",
"121","-0.767612","0.294972","-0.602487","1591","827","-256",
"121.046","-0.804745","0.195199","-0.692293","1591","827","-256",
"121.093","-0.78721","0.142843","-0.663673","1603","833","-262",
"121.139","-0.810933","0.036155","-0.487023","1603","833","-262",
"121.186","-0.831563","0.036155","-0.523537","1603","833","-262",
"121.233","-0.834657","0.052949","-0.518603","1603","869","-287",
"121.279","-0.838783","0.03418","-0.518603","1603","869","-287",
"121.325","-0.842909","0.066779","-0.510708","1609","863","-299",
"121.37","-0.856318","0.028252","-0.484062","1609","863","-299",
"121.416","-0.835688","0.050973","-0.518603","1609","881","-305",
"121.462","-0.854255","-0.209819","-0.516629","1609","881","-305",
"121.509","-0.859412","0.04307","-0.512681","1591","887","-286",
"121.555","-0.866632","0.000593","-0.509721","1591","887","-286",
"121.601","-0.896545","0.004544","-0.466298","1591","934","-311",
"121.647","-0.870758","0.003556","-0.530445","1591","934","-311",
"121.693","-0.913048","-0.019164","-0.445574","1591","934","-311",
"121.739","-0.87179","-0.051763","-0.471233","1580","946","-323",
"121.785","-0.926457","-0.075472","-0.38044","1580","946","-323",
"121.831","-0.875915","-0.067569","-0.433731","1574","969","-354",
"121.878","-0.895513","-0.119925","-0.343926","1574","969","-354",
"121.924","-0.94296","-0.07646","-0.408073","1544","993","-329",
"121.97","-0.907891","-0.114986","-0.397217","1544","993","-329",
"122.017","-0.926457","-0.093253","-0.413994","1544","1023","-372",
"122.063","-0.917174","-0.141658","-0.359716","1544","1023","-372",
"122.11","-0.922331","-0.139682","-0.381427","1520","1029","-360",
"122.156","-0.929551","-0.173269","-0.342939","1520","1029","-360",
"122.203","-0.937803","-0.171293","-0.383401","1520","1029","-360",
"122.25","-0.918205","-0.460733","-0.321228","1497","1058","-366",
"122.296","-0.912017","-0.222661","-0.327149","1497","1058","-366",
"122.343","-0.930583","-0.250321","-0.287674","1485","1094","-378",
"122.39","-0.883136","-0.273042","-0.406099","1485","1094","-378",
"122.437","-0.909954","-0.362936","-0.168262","1449","1141","-415",
"122.484","-0.923363","-0.382693","-0.191947","1449","1141","-415",
"122.53","-0.925425","-0.38862","-0.187013","1432","1176","-470",
"122.577","-0.917174","-0.391584","-0.186026","1432","1176","-470",
"122.623","-0.890356","-0.403438","-0.167275","1373","1194","-512",
"122.669","-0.905828","-0.399486","-0.151485","1373","1194","-512",
"122.716","-0.895513","-0.436037","-0.121879","1373","1224","-567",
"122.762","-0.914079","-0.446903","-0.131748","1361","1224","-567",
"122.808","-0.924394","-0.463697","-0.095233","1361","1224","-567",
"122.854","-0.891387","-0.477526","-0.112997","1349","1247","-561",
"122.901","-0.916142","-0.478514","-0.084378","1349","1247","-561",
"122.947","-0.885199","-0.498271","-0.089312","1319","1259","-580",
"122.993","-0.861475","-0.523955","-0.062667","1319","1259","-580",
"123.04","-0.852192","-0.520992","-0.082404","1290","1265","-573",
"123.087","-0.849097","-0.564457","-0.018257","1290","1265","-573",
"123.134","-0.837751","-0.564457","-0.021218","1254","1295","-598",
"123.181","-0.797525","-0.597056","0.008388","1254","1295","-598",
"123.227","-0.817122","-0.617801","0.021218","1225","1307","-616",
"123.274","-0.821248","-0.615825","0.003454","1225","1307","-616",
"123.321","-0.821248","-0.609898","0.055758","1225","1307","-616",
"123.367","-0.774832","-0.662254","0.094247","1183","1312","-635",
"123.413","-0.75214","-0.662254","0.116945","1183","1312","-635",
"123.459","-0.742857","-0.658303","0.135695","1154","1330","-671",
"123.505","-0.720165","-0.652376","0.102142","1154","1330","-671",
"123.551","-0.750077","-0.696829","0.184052","1101","1348","-702",
"123.598","-0.722228","-0.707695","0.183065","1101","1348","-702",
"123.644","-0.73048","-0.684975","0.17221","1053","1354","-738",
"123.691","-0.707788","-0.739307","0.240304","1053","1354","-738",
"123.737","-0.639711","-0.709671","0.21958","1035","1348","-763",
"123.784","-0.617019","-0.765978","0.318267","1035","1348","-763",
"123.83","-0.615988","-0.723501","0.26991","1035","1348","-763",
"123.876","-0.556163","-0.785735","0.319254","959","1372","-769",
"123.922","-0.584012","-0.741282","0.274845","959","1372","-769",
"123.968","-0.509747","-0.815371","0.401165","899","1383","-775",
"124.014","-0.524188","-0.749185","0.26695","899","1383","-775",
"124.06","-0.477772","-0.803517","0.420902","911","1354","-793",
"124.107","-0.512842","-0.765978","0.312346","911","1354","-793",
"124.152","-0.463332","-0.832164","0.409059","870","1366","-781",
"124.198","-0.468489","-0.795614","0.360703","870","1366","-781",
"124.244","-0.365343","-0.856861","0.394256","775","1372","-787",
"124.291","-0.368437","-0.82031","0.415968","775","1372","-787",
"124.337","-0.267354","-0.854885","0.414981","775","1372","-787",
"124.384","-0.309644","-0.848958","0.433731","757","1366","-793",
"124.431","-0.249819","-0.885508","0.413007","757","1366","-793",
"124.477","-0.280763","-0.877605","0.441626","698","1383","-757",
"124.523","-0.245694","-0.862788","0.409059","698","1383","-757",
"124.569","-0.154925","-0.894399","0.45939","663","1348","-732",
"124.615","-0.107478","-0.871678","0.423863","663","1348","-732",
"124.661","-0.081692","-0.907241","0.417941","604","1360","-714",
"124.707","-0.15802","-0.905265","0.47518","604","1360","-714",
"124.754","-0.103352","-0.92601","0.441626","592","1354","-689",
"124.8","-0.000206","-0.906253","0.463338","592","1354","-689",
"124.847","-0.131202","-0.927986","0.463338","592","1354","-689",
"124.894","-0.1869","-0.871678","0.409059","568","1360","-683",
"124.94","-0.078597","-0.873654","0.390309","568","1360","-683",
"124.986","-0.022898","-0.877605","0.435705","568","1348","-708",
"125.032","-0.041465","-0.910204","0.463338","568","1348","-708",
"125.078","0.017329","-0.865751","0.41202","533","1342","-659",
"125.124","0.06787","-0.909217","0.537353","533","1342","-659",
"125.17","0.026612","-0.843031","0.444587","527","1336","-677",
"125.216","-0.001238","-0.856861","0.492944","527","1336","-677",
"125.262","0.041052","-0.786723","0.495904","485","1342","-689",
"125.308","0.031769","-0.794626","0.563999","485","1342","-689",
"125.354","-0.006395","-0.852909","0.557091","485","1342","-689",
"125.4","-0.013615","-0.852909","0.561038","491","1318","-708",
"125.446","-0.015678","-0.857848","0.553143","491","1318","-708",
"125.493","0.013203","-0.850933","0.53834","485","1312","-744",
"125.539","0.081279","-0.81142","0.606434","485","1312","-744",
"125.586","0.089531","-0.855873","0.587684","462","1318","-744",
"125.632","0.079216","-0.928974","0.470246","462","1318","-744",
"125.679","0.022486","-0.841055","0.510708","444","1301","-744",
"125.725","0.099845","-0.763015","0.453469","444","1301","-744",
"125.771","0.165859","-0.726465","0.77519","432","1271","-732",
"125.817","0.101908","-0.887484","0.515642","432","1271","-732",
"125.863","0.049304","-0.860812","0.513668","432","1271","-732",
"125.91","0.097782","-0.845994","0.519589","414","1289","-714",
"125.956","0.139041","-0.812407","0.547222","414","1289","-714",
"126.002","0.17411","-0.768942","0.588671","414","1265","-720",
"126.048","0.197834","-0.789687","0.523537","414","1265","-720",
"126.094","0.205054","-0.817347","0.496891","367","1259","-714",
"126.14","0.256627","-0.816359","0.529458","367","1259","-714",
"126.186","0.297886","-0.784748","0.484062","332","1212","-653",
"126.232","0.330892","-0.755112","0.546235","332","1212","-653",
"126.279","0.351521","-0.79265","0.542288","273","1206","-659",
"126.325","0.342238","-0.749185","0.571894","273","1206","-659",
"126.372","0.341207","-0.72844","0.535379","273","1206","-659",
"126.418","0.40722","-0.738319","0.528471","267","1200","-659",
"126.464","0.444353","-0.720537","0.525511","267","1200","-659",
"126.509","0.457762","-0.706707","0.476167","243","1159","-640",
"126.554","0.502114","-0.724489","0.479128","243","1159","-640",
"126.601","0.514492","-0.734367","0.497878","237","1147","-592",
"126.647","0.482517","-0.754124","0.485049","237","1147","-592",
"126.694","0.45673","-0.717574","0.482088","231","1141","-592",
"126.74","0.45673","-0.748197","0.450508","231","1141","-592",
"126.785","0.500052","-0.711647","0.55413","219","1153","-604",
"126.831","0.579474","-0.655339","0.504786","219","1153","-604",
"126.878","0.537184","-0.693865","0.426823","219","1153","-604",
"126.924","0.601135","-0.735355","0.492944","207","1129","-561",
"126.97","0.614544","-0.658303","0.463338","207","1129","-561",
"127.016","0.641362","-0.601008","0.420902","166","1099","-525",
"127.062","0.688809","-0.604959","0.4436","166","1099","-525",
"127.109","0.776483","-0.520004","0.355768","160","1070","-525",
"127.155","0.862094","-0.568409","0.614329","160","1070","-525",
"127.201","0.771325","-0.60002","0.338991","131","1029","-439",
"127.247","0.814647","-0.448879","0.227475","131","1029","-439",
"127.293","0.74657","-0.547664","0.169249","131","999","-402",
"127.339","0.897164","-0.490368","0.315306","95","999","-402",
"127.385","0.753791","-0.500247","0.223527","95","999","-402",
"127.431","0.820835","-0.389608","0.216619","89","922","-311",
"127.477","0.868283","-0.512101","0.221553","89","922","-311",
"127.523","0.923981","-0.299714","0.123853","107","916","-286",
"127.569","0.946674","-0.551615","0.137669","107","916","-286",
"127.615","0.932233","-0.413316","0.108063","113","892","-244",
"127.662","0.904384","-0.313543","0.026152","113","892","-244",
"127.708","0.959051","-0.419243","0.085365","125","857","-201",
"127.754","0.967303","-0.365899","0.029113","125","857","-201",
"127.8","0.967303","-0.337252","0.053785","125","833","-170",
"127.847","0.992058","-0.392571","-0.00148","125","833","-170",
"127.893","0.996184","-0.336264","-0.035034","125","833","-170",
"127.939","0.941516","-0.292799","-0.090299","131","816","-128",
"127.986","0.969366","-0.21871","-0.094247","131","816","-128",
"128.033","0.97246","-0.336264","-0.095233","154","822","-103",
"128.079","0.996184","-0.337252","-0.088325","154","822","-103",
"128.125","0.993089","-0.293786","-0.198855","196","780","-36",
"128.171","0.994121","-0.25526","-0.252146","196","780","-36",
"128.217","0.950799","-0.459745","-0.291621","213","756","0",
"128.263","0.975554","-0.231552","-0.263002","213","756","0",
"128.309","0.975554","-0.2602","-0.296556","469","739","48",
"128.355","0.916761","-0.181172","-0.31728","261","739","48",
"128.4","0.989995","-0.225625","-0.316293","261","739","48",
"128.447","0.95802","-0.184135","-0.373532","302","727","79",
"128.494","0.91573","-0.208831","-0.379453","302","727","79",
"128.54","0.941516","-0.197965","-0.414981","332","709","109",
"128.585","0.899226","-0.216734","-0.441626","332","709","109",
"128.631","0.901289","-0.208831","-0.461364","361","697","140",
"128.677","0.864157","-0.23254","-0.469259","361","697","140",
"128.723","0.874471","-0.216734","-0.463338","397","721","146",
"128.769","0.879629","-0.24637","-0.499852","397","721","146",
"128.815","0.840433","-0.156475","-0.529458","397","721","158",
"128.861","0.860031","-0.25526","-0.50676","420","745","158",
"128.907","0.849716","-0.267114","-0.485049","420","745","158",
"128.953","0.837339","-0.249333","-0.548209","450","739","177",
"129","0.843528","-0.26909","-0.550183","450","739","177",
"129.046","0.806395","-0.211795","-0.580776","485","727","213",
"129.092","0.773388","-0.21871","-0.586697","485","727","213",
"129.138","0.782671","-0.220686","-0.635054","503","739","219",
"129.184","0.757916","-0.231552","-0.638014","503","739","219",
"129.23","0.772357","-0.226613","-0.646896","533","709","213",
"129.277","0.779577","-0.315519","-0.605448","533","709","213",
"129.323","0.692935","-0.151536","-0.725846","533","709","213",
"129.369","0.738319","-0.24637","-0.686371","586","709","244",
"129.415","0.667148","-0.16833","-0.750518","586","709","244",
"129.462","0.6754","-0.221673","-0.737689","621","727","268",
"129.508","0.666117","-0.24637","-0.718938","621","727","268",
"129.554","0.585663","-0.142645","-0.843284","698","709","274",
"129.599","0.600103","-0.198953","-0.765321","698","709","274",
"129.644","0.564002","-0.167342","-0.788019","740","674","287",
"129.691","0.538216","-0.145609","-0.832429","740","674","287",
"129.736","0.503146","-0.116961","-0.870917","793","638","274",
"129.782","0.518618","-0.167342","-0.86993","793","638","274",
"129.828","0.486643","-0.118937","-0.879799","793","638","274",
"129.874","0.410315","-0.103131","-0.906444","852","638","286",
"129.92","0.409283","-0.094241","-0.925195","852","638","286",
"129.967","0.38556","-0.133755","-0.945919","905","626","286",
"130.014","0.370088","-0.106095","-0.880786","905","626","286",
"130.061","0.305106","-0.051763","-0.956775","970","591","274",
"130.106","0.281382","0.003556","-0.929142","970","591","274",
"130.152","0.250438","-0.037933","-0.910392","1041","555","274",
"130.199","0.214337","0.023313","-0.951841","1041","555","274",
"130.245","0.15967","0.00652","-0.976512","1077","526","256",
"130.291","0.168953","-0.004347","-0.828481","1077","526","256",
"130.337","0.167922","0.014423","-1.045594","1077","526","256",
"130.383","0.1246","0.095426","-0.993289","1118","508","219",
"130.429","0.180299","-0.013237","-0.921247","1118","508","219",
"130.475","0.122537","0.097402","-0.971578","1160","514","238",
"130.521","0.088499","0.088511","-0.970591","1160","514","238",
"130.567","0.074059","0.083572","-0.987368","1177","443","207",
"130.613","0.058587","0.100366","-0.970591","1177","443","207",
"130.659","0.033832","0.106293","-0.984407","1225","467","219",
"130.704","-0.247757","0.109256","-0.981447","1225","467","219",
"130.751","0.002888","0.11222","-0.957762","1254","455","170",
"130.798","-0.003301","0.147782","-0.975525","1254","455","170",
"130.844","-0.017741","0.154697","-0.956775","1254","455","170",
"130.889","-0.045591","0.17643","-0.975525","1284","413","164",
"130.936","-0.036307","0.197175","-0.944932","1284","413","164",
"130.982","-0.072408","0.205078","-0.953814","1296","408","140",
"131.028","-0.072408","0.238664","-0.96467","1296","408","140",
"131.075","-0.100258","0.219895","-0.946906","1319","390","116",
"131.121","-0.104384","0.264349","-0.941972","1319","390","116",
"131.168","-0.141516","0.257434","-0.923221","1337","378","109",
"131.214","-0.154925","0.285093","-0.9173","1337","378","109",
"131.261","-0.17968","0.298923","-0.910392","1355","354","103",
"131.307","-0.185869","0.297935","-0.898549","1355","354","103",
"131.354","-0.211655","0.299911","-0.915326","1355","354","103",
"131.399","-0.203404","0.296948","-0.891641","1408","337","48",
"131.445","-0.220939","0.342389","-0.886707","1408","337","48",
"131.491","-0.236411","0.347328","-0.876838","1420","348","12",
"131.537","-0.244662","0.333498","-0.877825","1420","348","12",
"131.583","-0.260134","0.339425","-0.882759","1444","331","6",
"131.629","-0.260134","0.350291","-0.857101","1444","331","6",
"131.675","-0.287984","0.348316","-0.851179","1438","343","24",
"131.721","-0.30655","0.385854","-0.839337","1438","343","24",
"131.767","-0.305518","0.352267","-0.851179","1479","354","0",
"131.813","-0.32821","0.389805","-0.880786","1479","354","0",
"131.859","-0.325116","0.333498","-0.841311","1479","354","0",
"131.905","-0.345745","0.347328","-0.831442","1491","366","-42",
"131.952","-0.379783","0.393757","-0.832429","1491","366","-42",
"131.998","-0.383909","0.337449","-0.826507","1514","372","-61",
"132.044","-0.396287","0.337449","-0.781111","1514","372","-61",
"132.09","-0.428262","0.449076","-0.813678","1526","366","-61",
"132.136","-0.41279","0.368073","-0.82256","1526","366","-61",
"132.181","-0.411759","0.36017","-0.826507","1538","360","-79",
"132.227","-0.426199","0.38289","-0.786046","1538","360","-79",
"132.274","-0.429293","0.33251","-0.799862","1538","396","-103",
"132.32","-0.445797","0.363133","-0.784072","1544","396","-103",
"132.366","-0.440639","0.379927","-0.782098","1544","396","-103",
"132.412","-0.483961","0.395732","-0.739662","1562","402","-85",
"132.459","-0.499433","0.322632","-0.791967","1562","402","-85",
"132.505","-0.526251","0.343376","-0.748544","1562","431","-122",
"132.551","-0.516968","0.364121","-0.766308","1562","431","-122",
"132.597","-0.498401","0.364121","-0.763348","1556","443","-128",
"132.643","-0.49737","0.375975","-0.997237","1556","443","-128",
"132.689","-0.520062","0.406599","-0.741636","1568","467","-140",
"132.735","-0.527282","0.294972","-0.754466","1568","467","-140",
"132.781","-0.553069","0.331522","-0.711043","1568","467","-158",
"132.827","-0.562352","0.335474","-0.714991","1609","473","-158",
"132.873","-0.607736","0.341401","-0.715977","1609","473","-158",
"132.919","-0.607736","0.33251","-0.690319","1627","490","-164",
"132.965","-0.61083","0.305838","-0.679463","1627","490","-164",
"133.012","-0.624239","0.331522","-0.685384","1597","514","-158",
"133.059","-0.629397","0.299911","-0.679463","1597","514","-158",
"133.105","-0.632491","0.343376","-0.705122","1627","544","-177",
"133.151","-0.641774","0.337449","-0.662686","1627","544","-177",
"133.197","-0.648994","0.308802","-0.660713","1621","532","-189",
"133.244","-0.667561","0.357206","-0.641962","1621","532","-189",
"133.291","-0.70263","0.339425","-0.628146","1621","555","-201",
"133.336","-0.694379","0.04307","-0.599526","1645","555","-201",
"133.382","-0.719134","0.329547","-0.605448","1645","555","-201",
"133.43","-0.693347","0.314729","-0.590644","1639","573","-225",
"133.477","-0.743889","0.384866","-0.593605","1639","573","-225",
"133.524","-0.713976","0.377951","-0.593605","1651","573","-244",
"133.57","-0.755235","0.312753","-0.556104","1651","573","-244",
"133.616","-0.781021","0.370048","-0.508734","1645","573","-256",
"133.662","-0.777927","0.343376","-0.463338","1645","573","-256",
"133.708","-0.784116","0.38289","-0.481101","1668","573","-256",
"133.754","-0.78721","0.331522","-0.472219","1668","573","-256",
"133.801","-0.80165","0.376963","-0.472219","1651","579","-274",
"133.847","-0.823311","0.356219","-0.390309","1651","579","-274",
"133.893","-0.820217","0.388818","-0.477154","1651","579","-274",
"133.94","-0.820217","0.257434","-0.497878","1639","626","-268",
"133.986","-0.810933","0.317692","-0.438666","1639","626","-268",
"134.032","-0.833626","0.357206","-0.434718","1639","638","-268",
"134.078","-0.821248","0.322632","-0.399191","1639","638","-268",
"134.124","-0.849097","0.380915","-0.447548","1639","626","-262",
"134.171","-0.757298","0.272251","-0.429784","1639","626","-262",
"134.217","-0.856318","0.247555","-0.36465","1639","650","-250",
"134.262","-0.867664","0.289045","-0.47518","1639","650","-250",
"134.308","-0.849097","0.327571","-0.448534","1639","686","-219",
"134.354","-0.858381","0.422404","-0.476167","1627","686","-219",
"134.4","-0.842909","0.286081","-0.397217","1627","686","-219",
"134.446","-0.866632","0.334486","-0.430771","1639","668","-232",
"134.492","-0.852192","0.255458","-0.363663","1639","668","-232",
"134.538","-0.835688","0.341401","-0.505773","1651","697","-232",
"134.585","-0.803713","0.14877","-0.350834","1651","697","-232",
"134.631","-0.84394","0.362146","-0.14063","1633","680","-250",
"134.678","-0.866632","0.385854","-0.448534","1633","680","-250",
"134.724","-0.839814","0.296948","-0.488009","1627","709","-256",
"134.77","-0.853223","0.290033","-0.480114","1627","709","-256",
"134.816","-0.799587","0.207053","-0.562025","1627","721","-207",
"134.862","-0.821248","0.172479","-0.243265","1609","721","-207",
"134.908","-0.854255","0.090487","-0.425836","1609","721","-207",
"134.954","-0.820217","0.223847","-0.488996","1627","786","-195",
"135.001","-0.818154","0.141855","-0.599526","1627","786","-195",
"135.046","-0.826405","0.230762","-0.524524","1586","780","-183",
"135.092","-0.824342","0.175442","-0.591631","1586","780","-183",
"135.138","-0.756266","0.11222","-0.536366","1574","845","-164",
"135.184","-0.777927","0.001581","-0.575841","1574","845","-164",
"135.229","-0.785147","-0.002371","-0.661699","1544","893","-183",
"135.275","-0.749046","-0.0488","-0.645909","1544","893","-183",
"135.322","-0.772769","-0.068557","-0.690319","1544","893","-158",
"135.37","-0.735637","-0.107083","-0.657752","1503","946","-158",
"135.416","-0.7377","-0.272054","-0.592618","1503","946","-158",
"135.462","-0.706756","-0.227601","-0.620251","1461","1023","-170",
"135.509","-0.703662","-0.258224","-0.655778","1461","1023","-170",
"135.556","-0.725322","-0.206856","-0.624198","1426","1064","-207",
"135.603","-0.706756","-0.192038","-0.687358","1426","1064","-207",
"135.65","-0.670655","-0.313543","-0.667621","1438","1082","-213",
"135.696","-0.675812","-0.251309","-0.634067","1438","1082","-213",
"135.743","-0.639711","-0.297738","-0.671568","1420","1105","-201",
"135.789","-0.626302","-0.340215","-0.583736","1420","1105","-201",
"135.835","-0.6459","-0.283908","-0.753479","1384","1135","-213",
"135.882","-0.525219","-0.337252","-0.892628","1384","1135","-213",
"135.928","-0.542754","-0.351082","-0.735715","1384","1135","-213",
"135.975","-0.506653","-0.467648","-0.654791","1349","1153","-189",
"136.021","-0.486024","-0.444927","-0.749531","1349","1153","-189",
"136.067","-0.457143","-0.472587","-0.667621","1308","1171","-219",
"136.114","-0.454048","-0.498271","-0.716964","1308","1171","-219",
"136.161","-0.406601","-0.491356","-0.677489","1308","1212","-256",
"136.208","-0.384941","-0.594093","-0.763348","1308","1212","-256",
"136.254","-0.380815","-0.566433","-0.749531","1290","1230","-244",
"136.301","-0.371532","-0.526919","-0.736702","1290","1230","-244",
"136.348","-0.346777","-0.532846","-0.721899","1272","1236","-250",
"136.394","-0.332336","-0.550627","-0.670581","1272","1236","-250",
"136.44","-0.27148","-0.553591","-0.702161","1272","1236","-256",
"136.487","-0.265291","-0.571372","-0.768282","1272","1236","-256",
"136.533","-0.194121","-0.580263","-0.826507","1272","1236","-256",
"136.579","-0.204435","-0.540749","-0.877825","1225","1247","-238",
"136.625","-0.198247","-0.567421","-0.682424","1225","1247","-238",
"136.672","-0.145642","-0.575324","-0.754466","1195","1236","-189",
"136.718","-0.149768","-0.568409","-0.804796","1195","1236","-189",
"136.764","-0.072408","-0.653364","-0.756439","1166","1259","-170",
"136.81","-0.020835","-0.474563","-0.922234","1166","1259","-170",
"136.858","-0.077566","-0.575324","-0.731767","1130","1259","-134",
"136.905","-0.011552","-0.525931","-0.891641","1130","1259","-134",
"136.952","0.045178","-0.574336","-0.745584","1118","1253","-122",
"136.998","0.036926","-0.51704","-0.873877","1118","1253","-122",
"137.044","0.00392","-0.570384","-0.995263","1118","1253","-122",
"137.09","0.108097","-0.457769","-0.644923","1083","1230","-91",
"137.136","0.139041","-0.476539","-0.840324","1083","1230","-91",
"137.181","0.083342","-0.542724","-0.923221","1047","1224","-67",
"137.228","0.198865","-0.210807","-0.801836","1047","1224","-67",
"137.274","0.172047","-0.501235","-0.860061","982","1206","-30",
"137.321","0.239092","-0.442952","-0.839337","982","1206","-30",
"137.367","0.242187","-0.45283","-0.807757","959","1182","6",
"137.413","0.221557","-0.472587","-0.86993","959","1182","6",
"137.459","0.348427","-0.410353","-0.789993","923","1200","18",
"137.505","0.30098","-0.475551","-0.877825","923","1200","18",
"137.55","0.377308","-0.413316","-0.853153","923","1200","18",
"137.597","0.370088","-0.440976","-0.760387","870","1188","36",
"137.642","0.403094","-0.419243","-0.848219","870","1188","36",
"137.688","0.433007","-0.399486","-0.781111","817","1171","24",
"137.734","0.444353","-0.433073","-0.750518","817","1171","24",
"137.78","0.44951","-0.387632","-0.863022","793","1171","30",
"137.825","0.434038","-0.421219","-0.757426","793","1171","30",
"137.871","0.50624","-0.393559","-0.762361","781","1171","30",
"137.917","0.44951","-0.429122","-0.795914","781","1171","30",
"137.963","0.537184","-0.381705","-0.708082","781","1171","30",
"138.009","0.55575","-0.396523","-0.752492","752","1147","30",
"138.055","0.582568","-0.385656","-0.72782","752","1147","30",
"138.101","0.59082","-0.390596","-0.763348","728","1153","36",
"138.147","0.584631","-0.419243","-0.715977","728","1153","36",
"138.193","0.59082","-0.369851","-0.681437","692","1141","30",
"138.239","0.642393","-0.392571","-0.655778","692","1141","30",
"138.285","0.645487","-0.389608","-0.742623","639","1171","30",
"138.331","0.69706","-0.34713","-0.593605","639","1171","30",
"138.378","0.683651","-0.417268","-0.672555","627","1159","24",
"138.424","0.72491","-0.34713","-0.652818","627","1159","24",
"138.47","0.688809","-0.38862","-0.556104","627","1159","24",
"138.516","0.745539","-0.366887","-0.631106","574","1141","6",
"138.562","0.721815","-0.378741","-0.563012","574","1141","6",
"138.608","0.818773","-0.367875","-0.579789","556","1141","6",
"138.653","0.754822","-0.385656","-0.542288","556","1141","6",
"138.699","0.786797","-0.372814","-0.478141","515","1141","-30",
"138.745","0.867251","-0.354045","-0.500839","515","1141","-30",
"138.791","0.759979","-0.406401","-0.501826","509","1141","-18",
"138.837","0.935327","-0.320458","-0.440639","509","1141","-18",
"138.883","0.835276","-0.420231","-0.406099","474","1129","-61",
"138.929","0.819804","-0.372814","-0.50676","474","1129","-61",
"138.975","0.870346","-0.340215","-0.312346","474","1129","-61",
"139.022","0.863125","-0.378741","-0.406099","414","1129","-54",
"139.069","0.925013","-0.322434","-0.304451","414","1129","-54",
"139.116","0.893038","-0.394547","-0.321228","397","1141","-103",
"139.161","0.966271","-0.349106","-0.289648","397","1141","-103",
"139.207","0.914698","-0.387632","-0.247212","361","1129","-128",
"139.254","0.952862","-0.354045","-0.202803","361","1129","-128",
"139.299","0.943579","-0.355033","-0.22254","308","1111","-195",
"139.345","0.978649","-0.362936","-0.0301","308","1111","-195",
"139.391","0.984838","-0.339227","-0.189973","308","1141","-225",
"139.437","0.939453","-0.379729","0.097207","284","1141","-225",
"139.483","1.011655","-0.316507","-0.068588","284","1141","-225",
"139.529","0.911604","-0.387632","-0.03306","267","1117","-287",
"139.575","1.012687","-0.311568","0.132735","267","1117","-287",
"139.621","0.935327","-0.357997","0.094247","237","1129","-342",
"139.667","0.91573","-0.325398","0.184052","237","1129","-342",
"139.713","0.992058","-0.331325","0.183065","225","1111","-372",
"139.759","0.939453","-0.356021","0.114971","225","1111","-372",
"139.806","0.956988","-0.325398","0.515642","213","1105","-421",
"139.852","0.912635","-0.372814","0.173196","213","1105","-421",
"139.899","0.919856","-0.332313","0.243265","213","1105","-464",
"139.944","0.925013","-0.386644","0.343926","202","1129","-464",
"139.99","0.899226","-0.302677","0.120892","202","1129","-464",
"140.036","0.907478","-0.381705","0.449521","184","1111","-476",
"140.082","0.885817","-0.319471","0.23537","184","1111","-476",
"140.128","0.878597","-0.367875","0.447548","196","1111","-525",
"140.174","0.886849","-0.357997","0.334057","196","1111","-525",
"140.22","0.870346","-0.350094","0.360703","196","1117","-549",
"140.266","0.835276","-0.40245","0.428797","196","1117","-549",
"140.313","0.846622","-0.399486","0.436692","196","1135","-586",
"140.359","0.802269","-0.414304","0.481101","196","1135","-586",
"140.406","0.776483","-0.386644","0.487023","196","1135","-616",
"140.452","0.822898","-0.401462","0.567946","213","1147","-616",
"140.498","0.657865","-0.411341","0.488996","213","1147","-616",
"140.544","0.728004","-0.450854","0.655778","261","1176","-677",
"140.59","0.6754","-0.395535","0.6015","261","1176","-677",
"140.636","0.677463","-0.445915","0.646896","278","1188","-720",
"140.682","0.617638","-0.446903","0.694266","278","1188","-720",
"140.728","0.5836","-0.462709","0.631106","302","1188","-757",
"140.774","0.580505","-0.400474","0.738676","302","1188","-757",
"140.821","0.509335","-0.454806","0.670581","320","1188","-812",
"140.867","0.478391","-0.427146","0.762361","320","1188","-812",
"140.913","0.44229","-0.471599","0.766308","320","1188","-812",
"140.96","0.423724","-0.413316","0.665647","355","1188","-867",
"141.007","0.373182","-0.476539","0.88572","355","1188","-867",
"141.054","0.314389","-0.454806","0.714991","444","1224","-904",
"141.099","0.289634","-0.441964","0.828481","444","1224","-904",
"141.145","0.245281","-0.507162","0.770256","491","1230","-922",
"141.191","0.316452","-0.536797","0.939998","491","1230","-922",
"141.237","0.242187","-0.486417","0.69624","509","1247","-916",
"141.283","0.241155","-0.557542","0.880786","509","1247","-916",
"141.329","0.169985","-0.507162","0.835389","551","1247","-928",
"141.375","0.162764","-0.519016","0.818612","551","1247","-928",
"141.421","0.138009","-0.507162","0.832429","551","1247","-928",
"141.468","0.095719","-0.569396","0.868943","592","1289","-922",
"141.514","0.123569","-0.502223","0.801836","592","1289","-922",
"141.56","0.069933","-0.554579","0.864009","622","1277","-928",
"141.607","0.063744","-0.524943","0.810717","622","1277","-928",
"141.653","0.015266","-0.506174","0.906444","622","1247","-946",
"141.699","0.0328","-0.49432","0.849206","622","1247","-946",
"141.745","-0.063125","-0.512101","0.810717","645","1253","-971",
"141.792","-0.027024","-0.532846","0.82256","645","1253","-971",
"141.838","-0.051779","-0.491356","0.825521","704","1271","-934",
"141.885","-0.077566","-0.58619","0.939998","704","1271","-934",
"141.931","-0.160083","-0.713622","0.669594","704","1271","-934",
"141.977","-0.090975","-0.538773","0.844271","716","1271","-958",
"142.023","-0.125013","-0.561494","0.866969","716","1271","-958",
"142.069","-0.117793","-0.62274","0.828481","740","1271","-940",
"142.115","-0.1869","-0.592117","0.729794","740","1271","-940",
"142.161","-0.119856","-0.644473","0.783085","769","1271","-922",
"142.207","-0.185869","-0.656327","0.761374","769","1271","-922",
"142.254","-0.22197","-0.737331","0.683411","787","1307","-879",
"142.3","-0.202372","-0.670157","0.669594","787","1307","-879",
"142.346","-0.233316","-0.699793","0.667621","787","1330","-836",
"142.393","-0.262197","-0.684975","0.661699","787","1330","-836",
"142.439","-0.286952","-0.782772","0.551169","787","1330","-836",
"142.485","-0.296235","-0.764003","0.612356","799","1348","-794",
"142.531","-0.373595","-0.843031","0.200829","799","1348","-794",
"142.578","-0.444765","-0.848958","0.417941","823","1377","-738",
"142.624","-0.44786","-0.82031","0.33011","823","1377","-738",
"142.67","-0.50459","-0.848958","0.267936","852","1383","-616",
"142.716","-0.501496","-0.799565","0.245238","852","1383","-616",
"142.763","-0.527282","-0.787711","0.216619","923","1383","-567",
"142.809","-0.574729","-0.805492","0.197868","923","1383","-567",
"142.855","-0.587107","-0.815371","0.123853","929","1378","-537",
"142.901","-0.576792","-0.809444","0.14063","929","1378","-537",
"142.948","-0.620113","-0.812407","0.069575","929","1378","-482",
"142.996","-0.609799","-0.803517","0.06168","970","1360","-482",
"143.042","-0.597421","-0.793638","0.054772","970","1360","-482",
"143.088","-0.632491","-0.789687","0.00148","988","1378","-397",
"143.134","-0.611862","-0.793638","-0.031087","988","1378","-397",
"143.181","-0.61083","-0.760051","-0.066614","982","1348","-372",
"143.227","-0.644868","-0.759064","-0.09326","982","1348","-372",
"143.274","-0.627334","-0.724489","-0.060693","1012","1336","-335",
"143.32","-0.677875","-0.750173","-0.244251","1012","1336","-335",
"143.366","-0.661372","-0.71955","-0.293595","1018","1318","-274",
"143.413","-0.657246","-0.690902","-0.227475","1018","1318","-274",
"143.459","-0.654152","-0.688926","-0.246225","1018","1318","-250",
"143.505","-0.654152","-0.698805","-0.267936","1000","1318","-250",
"143.551","-0.650026","-0.704732","-0.283726","1000","1318","-250",
"143.598","-0.61083","-0.701768","-0.311359","994","1324","-256",
"143.644","-0.644868","-0.469624","-0.343926","994","1324","-256",
"143.69","-0.641774","-0.679048","-0.331096","970","1301","-225",
"143.737","-0.58917","-0.692878","-0.318267","970","1301","-225",
"143.784","-0.595358","-0.652376","-0.430771","959","1307","-189",
"143.831","-0.569572","-0.690902","-0.468272","959","1307","-189",
"143.877","-0.563383","-0.659291","-0.451495","953","1259","-134",
"143.924","-0.563383","-0.637558","-0.508734","953","1259","-134",
"143.97","-0.570603","-0.641509","-0.524524","929","1253","-116",
"144.016","-0.555131","-0.62768","-0.526498","929","1253","-116",
"144.062","-0.541723","-0.588166","-0.574854","929","1253","-116",
"144.108","-0.532439","-0.575324","-0.586697","911","1224","-48",
"144.154","-0.524188","-0.547664","-0.613343","911","1224","-48",
"144.2","-0.252914","-0.519016","-0.670581","899","1218","-18",
"144.247","-0.472615","-0.49432","-0.711043","899","1218","-18",
"144.294","-0.442702","-0.510125","-0.715977","882","1141","30",
"144.34","-0.459206","-0.506174","-0.975525","882","1141","30",
"144.386","-0.474678","-0.71461","-0.763348","858","1129","73",
"144.432","-0.442702","-0.427146","-0.772229","858","1129","73",
"144.478","-0.430325","-0.420231","-0.771242","864","1094","97",
"144.524","-0.428262","-0.390596","-0.79098","864","1094","97",
"144.57","-0.423105","-0.40245","-0.803809","864","1094","97",
"144.616","-0.432388","-0.354045","-0.797888","846","1076","97",
"144.662","-0.404538","-0.339227","-0.825521","846","1076","97",
"144.709","-0.395255","-0.299714","-0.845258","817","1046","122",
"144.756","-0.374626","-0.298726","-0.839337","817","1046","122",
"144.802","-0.359154","-0.250321","-0.868943","805","993","158",
"144.848","-0.337494","-0.226613","-0.883746","805","993","158",
"144.895","-0.335431","-0.169317","-0.886707","781","963","201",
"144.941","-0.309644","-0.132767","-0.926182","781","963","201",
"144.987","-0.286952","-0.119925","-0.918287","746","898","225",
"145.033","-0.282826","-0.083374","-0.943946","746","898","225",
"145.08","-0.242599","-0.055715","-0.913352","746","898","225",
"145.126","-0.233316","-0.020152","-0.977499","710","827","232",
"145.172","-0.174523","0.0569","-0.937037","710","827","232",
"145.218","-0.166271","0.013435","-1.005132","663","762","250",
"145.264","-0.101289","0.108268","-0.984407","663","762","250",
"145.309","-0.106447","0.085548","-0.748544","604","715","250",
"145.355","-0.064157","0.076657","-0.911379","604","715","250",
"145.4","-0.074471","0.130001","-0.944932","586","709","238",
"145.446","-0.03837","0.122098","-1.03079","586","709","238",
"145.492","-0.003301","0.124074","-0.900523","586","697","232",
"145.539","-0.005364","0.109256","-0.752492","539","697","232",
"145.585","0.000825","0.063815","-0.979473","539","697","232",
"145.631","0.026612","0.119135","-0.928156","521","715","219",
"145.677","0.027643","0.178406","-1.005132","521","715","219",
"145.723","0.021454","0.183345","-1.242969","509","697","232",
"145.769","0.033832","0.200138","-0.925195","509","697","232",
"145.816","0.064776","0.259409","-0.923221","509","680","232",
"145.862","0.069933","0.263361","-0.900523","509","680","232",
"145.908","0.093657","0.303862","-0.913352","503","620","219",
"145.954","0.058587","0.287069","-0.966644","503","620","219",
"146","0.099845","0.276203","-0.897562","503","591","207",
"146.046","0.115317","0.338437","-0.953814","456","591","207",
"146.092","0.084373","0.546873","-0.938024","456","591","207",
"146.138","0.148324","0.38289","-0.888681","474","567","201",
"146.184","0.127695","0.374","-0.939011","474","567","201",
"146.23","0.150387","0.361158","-0.868943","444","526","201",
"146.276","0.140072","0.290033","-1.024869","444","526","201",
"146.323","0.160701","0.380915","-0.893615","426","508","183",
"146.369","0.193708","0.453028","-0.890654","426","508","183",
"146.415","0.175142","0.397708","-0.890654","420","496","189",
"146.461","0.173079","0.385854","-0.90151","420","496","189",
"146.508","0.200928","0.38783","-0.816639","420","502","183",
"146.554","0.204023","0.403635","-0.914339","391","502","183",
"146.6","0.220526","0.43821","-0.909405","391","502","183",
"146.646","0.213306","0.383878","-0.865982","379","502","189",
"146.693","0.232904","0.41055","-0.847232","379","502","189",
"146.739","0.252501","0.42438","-0.845258","373","484","140",
"146.786","0.260753","0.473773","-0.853153","373","484","140",
"146.832","0.254564","0.478712","-0.820586","349","496","134",
"146.878","0.542341","0.468833","-0.868943","349","496","134",
"146.924","0.322641","0.429319","-0.751505","344","437","116",
"146.97","0.314389","0.475748","-0.830455","344","437","116",
"147.016","0.31542","0.517238","-0.799862","344","437","103",
"147.062","0.362867","0.559716","-0.739662","296","419","103",
"147.109","0.374214","0.567618","-0.773216","296","419","103",
"147.156","0.391748","0.596266","-0.722886","267","384","61",
"147.202","0.380402","0.603181","-0.709069","267","384","61",
"147.247","0.374214","0.5854","-0.700188","237","360","54",
"147.293","0.382465","0.593302","-0.695253","237","360","54",
"147.339","0.384528","0.634792","-0.713017","237","348","6",
"147.385","0.436101","0.618986","-0.639988","237","348","6",
"147.431","0.448479","0.634792","-0.606434","202","348","6",
"147.477","0.445384","0.6585","-0.610382","202","348","6",
"147.523","0.422692","0.666403","-0.615316","202","348","-18",
"147.569","0.284477","0.617011","-0.539327","202","295","-18",
"147.614","0.521712","0.75531","-0.510708","202","295","-18",
"147.66","0.532027","0.756298","-0.464324","154","277","-61",
"147.706","0.5836","0.660476","-0.457416","154","277","-61",
"147.752","0.586694","0.723698","-0.430771","119","266","-134",
"147.798","0.614544","0.685172","-0.384388","119","266","-134",
"147.843","0.588757","0.72765","-0.432745","113","272","-158",
"147.89","0.600103","0.722711","-0.382414","113","272","-158",
"147.936","0.603198","0.729626","-0.365637","71","266","-213",
"147.982","0.627953","0.726662","-0.31728","71","266","-213",
"148.028","0.651676","0.729626","-0.315306","71","266","-213",
"148.074","0.637236","0.75531","-0.294582","83","272","-256",
"148.12","0.707375","0.694063","-0.232409","83","272","-256",
"148.165","0.686746","0.698014","0.010362","60","272","-293",
"148.211","0.703249","0.693075","-0.207737","60","272","-293",
"148.257","0.718721","0.694063","-0.174183","36","277","-317",
"148.303","0.743476","0.763213","-0.075496","36","277","-317",
"148.349","0.756885","0.650598","-0.135695","18","307","-372",
"148.395","0.792986","0.630841","-0.076483","18","307","-372",
"148.441","0.845591","0.680233","0.003454","-238","337","-409",
"148.488","0.812584","0.602193","0.040955","-5","337","-409",
"148.534","1.07148","0.605157","0.035034","-5","337","-409",
"148.58","0.83115","0.570582","0.114971","-23","366","-464",
"148.626","0.834244","0.614047","0.09326","-23","366","-464",
"148.673","0.827024","0.568606","0.102142","-17","408","-507",
"148.719","0.809489","0.578485","0.173196","-17","408","-507",
"148.766","0.846622","0.602193","0.249186","-35","425","-616",
"148.811","0.865188","0.29596","0.227475","-35","425","-616",
"148.858","0.844559","0.515262","0.23537","-11","414","-623",
"148.903","0.544404","0.569594","0.280766","-11","414","-623",
"148.948","0.855905","0.501432","0.258068","-11","414","-678",
"148.993","0.815678","0.620962","0.310372","-35","455","-678",
"149.04","0.768231","0.379927","0.188986","-35","455","-678",
"149.085","1.066323","0.419441","0.733741","-17","490","-745",
"149.131","0.763074","0.51625","0.454456","-17","490","-745",
"149.177","0.710469","0.445125","0.488996","6","520","-824",
"149.223","0.714595","0.447101","0.72782","6","520","-824",
"149.269","0.679526","0.315717","0.534393","18","514","-861",
"149.315","0.658896","0.404623","0.607421","18","514","-861",
"149.361","0.714595","0.365109","0.661699","12","508","-873",
"149.406","0.657865","0.355231","0.661699","12","508","-873",
"149.452","0.713564","0.375975","0.654791","12","508","-873",
"149.498","0.614544","0.324607","0.635054","48","514","-879",
"149.544","0.688809","0.323619","0.689332","48","514","-879",
"149.59","0.593914","0.284106","0.685384","60","532","-910",
"149.637","0.659928","0.339425","0.737689","60","532","-910",
"149.683","0.616606","0.310777","0.754466","60","544","-928",
"149.728","0.657865","0.2683","0.690319","60","544","-928",
"149.774","0.59804","0.271263","0.781111","83","544","-940",
"149.82","0.606292","0.262373","0.779137","83","544","-940",
"149.866","0.562971","0.243604","0.767295","83","555","-971",
"149.912","0.599072","0.245579","0.760387","83","555","-971",
"149.959","0.556782","0.208041","0.810717","83","555","-971",
"150.005","0.568128","0.207053","0.786046","83","591","-989",
"150.051","0.525838","0.203102","0.79098","83","591","-989",
"150.096","0.529964","0.211005","0.798875","119","597","-1007",
"150.142","0.280351","0.207053","0.825521","119","597","-1007",
"150.188","0.511398","0.159636","0.82256","137","603","-1026",
"150.234","0.521712","0.179393","0.848219","137","603","-1026",
"150.28","0.476328","0.140867","0.846245","125","621","-1057",
"150.326","0.494894","0.143831","0.843284","125","621","-1057",
"150.373","0.471171","0.135928","0.868943","125","626","-1068",
"150.418","0.470139","0.139879","0.873877","148","626","-1068",
"150.464","0.45673","0.129013","0.875851","148","626","-1068",
"150.51","0.447447","0.115183","0.879799","137","650","-1062",
"150.556","0.433007","0.115183","0.881772","137","650","-1062",
"150.602","0.418566","0.095426","0.895589","184","650","-1093",
"150.648","0.428881","0.103329","0.906444","184","650","-1093",
"150.694","0.396906","0.087523","0.920261","184","662","-1099",
"150.74","0.401031","0.085548","0.908418","184","662","-1099",
"150.787","0.393811","0.072706","0.938024","202","662","-1105",
"150.833","0.384528","0.07073","0.893615","202","662","-1105",
"150.879","0.376276","0.057888","0.911379","202","662","-1105",
"150.925","0.371119","0.052949","0.93309","202","680","-1105",
"150.971","0.36493","0.048009","0.953814","202","680","-1105",
"151.017","0.354616","-0.000395","0.928156","219","697","-1123",
"151.063","0.338112","0.009483","0.924208","219","697","-1123",
"151.11","0.340175","-0.024104","0.952827","249","715","-1136",
"151.157","0.311294","-0.046824","0.932103","249","715","-1136",
"151.203","0.326766","-0.051763","0.920261","243","745","-1136",
"151.249","0.285508","-0.086338","0.934077","243","745","-1136",
"151.295","0.298917","-0.087326","0.959736","261","780","-1154",
"151.341","0.26591","-0.103131","0.955788","261","780","-1154",
"151.388","0.259722","-0.100168","0.939011","261","786","-1148",
"151.434","0.242187","-0.096217","0.940985","261","786","-1148",
"151.481","0.261784","-0.107083","1.24889","261","786","-1148",
"151.528","0.228778","-0.094241","0.945919","261","762","-1148",
"151.574","0.221557","-0.102144","0.945919","261","762","-1148",
"151.62","0.213306","-0.094241","0.952827","296","780","-1166",
"151.667","0.207117","-0.09918","0.993289","296","780","-1166",
"151.714","0.220526","-0.095229","0.971578","326","780","-1167",
"151.76","0.197834","-0.114986","0.976512","326","780","-1167",
"151.805","0.199897","-0.116961","0.953814","302","786","-1191",
"151.852","0.191645","-0.136718","0.953814","302","786","-1191",
"151.899","0.191645","-0.131779","0.960722","326","798","-1172",
"151.944","0.19474","-0.128816","0.959736","326","798","-1172",
"151.99","0.17411","-0.184135","0.970591","326","798","-1172",
"152.037","0.15967","-0.167342","0.975525","349","822","-1172",
"152.083","0.150387","-0.144621","0.960722","349","822","-1172",
"152.129","0.155544","-0.160427","0.958749","332","839","-1179",
"152.175","0.135946","-0.186111","0.987368","332","839","-1179",
"152.221","0.130789","-0.164378","0.958749","332","833","-1197",
"152.267","0.143167","-0.172281","0.968617","332","833","-1197",
"152.313","0.100877","-0.165366","0.992302","349","816","-1185",
"152.359","0.092625","-0.167342","0.975525","349","816","-1185",
"152.405","0.059618","-0.17722","0.954801","349","839","-1209",
"152.451","0.035895","-0.169317","0.986381","379","839","-1209",
"152.497","0.026612","-0.172281","0.951841","379","839","-1209",
"152.543","0.029706","-0.167342","0.990329","432","833","-1240",
"152.589","-0.015678","-0.164378","0.967631","432","833","-1240",
"152.635","-0.024961","-0.153512","0.96467","468","839","-1246",
"152.681","-0.039402","-0.147585","0.99921","468","839","-1246",
"152.727","-0.035276","-0.104119","0.99921","509","828","-1282",
"152.773","-0.08788","-0.013237","0.99921","509","828","-1282",
"152.82","-0.077566","-0.001383","0.962696","521","810","-1319",
"152.866","-0.118824","0.087523","1.055462","521","810","-1319",
"152.913","-0.065188","0.086536","0.972565","521","554","-1325",
"152.958","-0.041465","0.115183","0.994276","539","709","-1325",
"153.004","-0.056937","0.230762","0.977499","539","709","-1325",
"153.051","-0.022898","0.260397","0.950854","521","632","-1319",
"153.096","-0.028056","0.242616","0.893615","521","632","-1319",
"153.143","-0.032182","0.31868","0.938024","497","555","-1331",
"153.19","-0.032182","0.359182","0.906444","497","555","-1331",
"153.237","-0.015678","0.362146","0.963683","491","508","-1313",
"153.282","0.036926","0.397708","0.884733","491","508","-1313",
"153.328","0.005982","0.444137","0.861048","480","455","-1325",
"153.375","0.036926","0.494517","0.85414","480","455","-1325",
"153.422","0.058587","0.504396","0.842297","480","408","-1301",
"153.467","0.059618","0.797787","0.909405","485","408","-1301",
"153.513","0.08231","0.588363","0.780124","485","408","-1301",
"153.559","0.090562","0.586387","0.749531","450","307","-1288",
"153.605","0.123569","0.662452","0.85414","450","307","-1288",
"153.651","0.121506","0.734565","0.751505","420","301","-1264",
"153.697","0.10294","0.717771","0.637028","420","301","-1264",
"153.743","0.158638","0.704929","0.639988","391","212","-1209",
"153.789","0.128726","0.745431","0.636041","391","212","-1209",
"153.835","0.120474","0.739504","0.649857","385","171","-1160",
"153.881","0.17411","0.923244","0.643936","385","171","-1160",
"153.927","0.213306","0.858046","0.446561","385","171","-1160",
"153.973","0.131821","0.734565","0.502813","379","118","-1148",
"154.019","0.128726","0.893609","0.531432","379","118","-1148",
"154.064","0.127695","0.874839","0.476167","373","70","-1118",
"154.109","0.136978","0.884718","0.431758","373","70","-1118",
"154.155","0.176173","0.933123","0.339978","397","35","-1068",
"154.201","0.136978","0.988442","0.268923","397","35","-1068",
"154.246","0.193708","0.969673","0.236356","391","5","-1038",
"154.293","0.165859","0.871876","0.447548","391","5","-1038",
"154.339","0.184425","0.938062","0.4436","349","-18","-995",
"154.385","0.155544","0.921268","0.331096","349","-18","-995",
"154.431","0.156576","0.909414","0.335044","349","-18","-995",
"154.477","0.172047","0.901511","0.297543","349","-48","-952",
"154.524","0.185456","0.935098","0.293595","349","-48","-952",
"154.57","0.186488","0.940038","0.170236","349","-83","-903",
"154.616","0.186488","0.999309","0.125827","349","-83","-903",
"154.662","0.179268","0.966709","0.082404","332","-131","-812",
"154.709","0.208149","0.917317","0.263002","332","-131","-812",
"154.756","0.218463","0.967697","0.003454","344","-142","-757",
"154.802","0.213306","0.957819","-0.100168","344","-142","-757",
"154.849","0.215369","0.948928","-0.163328","308","-154","-671",
"154.895","0.255596","0.89756","-0.188","308","-154","-671",
"154.941","0.016297","0.929171","-0.197868","308","-154","-671",
"154.987","0.299948","0.919293","-0.274845","290","-125","-592",
"155.033","0.303043","0.859034","-0.341952","290","-125","-592",
"155.079","0.305106","0.903487","-0.321228","261","-113","-531",
"155.125","0.336049","0.957819","-0.368598","261","-113","-531",
"155.171","0.36493","0.81952","-0.324188","231","-77","-513",
"155.218","0.389685","0.870888","-0.436692","231","-77","-513",
"155.264","0.398969","0.818532","-0.41202","208","-48","-451",
"155.31","0.412378","0.889657","-0.540314","208","-48","-451",
"155.356","0.401031","0.776055","-0.520576","184","-36","-439",
"155.402","0.365962","0.674306","-0.26695","184","-36","-439",
"155.448","0.354616","0.809641","-0.455443","184","-36","-439",
"155.494","0.371119","0.787909","-0.545248","213","-36","-390",
"155.54","0.358742","0.788897","-0.519589","213","-36","-390",
"155.586","0.360805","0.720735","-0.501826","208","-24","-360",
"155.632","0.347396","0.72765","-0.519589","208","-24","-360",
"155.678","0.354616","0.772103","-0.561038","208","-48","-342",
"155.724","0.372151","0.689124","-0.465311","208","-48","-342",
"155.77","0.362867","0.703942","-0.590644","202","0","-317",
"155.815","0.401031","0.706905","-0.577815","202","0","-317",
"155.861","0.371119","0.730613","-0.535379","202","0","-287",
"155.906","0.420629","0.63578","-0.627159","166","35","-287",
"155.952","0.4918","0.569594","-0.717951","166","35","-287",
"155.998","0.480454","0.640719","-0.676503","154","53","-262",
"156.045","0.455699","0.548849","-0.657752","154","53","-262",
"156.09","0.457762","0.536995","-0.746571","142","106","-232",
"156.136","0.480454","0.494517","-0.724859","142","106","-232",
"156.182","0.452604","0.500445","-0.717951","131","189","-189",
"156.228","0.448479","0.437222","-0.872891","131","189","-189",
"156.274","0.430944","0.414502","-0.798875","125","201","-152",
"156.32","0.460856","0.408575","-0.748544","125","201","-152",
"156.366","0.419598","0.372024","-0.823547","125","201","-152",
"156.413","0.412378","0.333498","-0.870917","172","195","-103",
"156.46","0.394843","0.303862","-0.919274","172","195","-103",
"156.506","0.378339","0.272251","-0.88572","148","236","-61",
"156.552","0.369056","0.258421","-0.862035","148","236","-61",
"156.598","0.402063","0.242616","-0.805783","172","272","-48",
"156.644","0.389685","0.251506","-0.897562","172","272","-48",
"156.69","0.372151","0.185321","-0.896576","166","295","-36",
"156.736","0.374214","0.17643","-0.922234","166","295","-36",
"156.782","0.371119","0.130989","-0.9173","172","337","-6",
"156.829","0.372151","0.141855","-0.922234","172","337","-6",
"156.875","0.369056","0.033192","-0.86993","172","337","-6",
"156.921","0.370088","0.057888","-0.942959","178","372","6",
"156.967","0.363899","0.022325","-0.939011","178","372","6",
"157.012","0.373182","-0.008298","-0.907431","208","431","12",
"157.058","0.39278","-0.05769","-0.881772","208","431","12",
"157.104","0.374214","0.026277","-1.020922","178","431","18",
"157.15","0.35049","-0.095229","-0.926182","178","431","18",
"157.195","0.342238","-0.103131","-0.935064","178","467","24",
"157.241","0.361836","-0.114986","-0.894602","178","467","24",
"157.287","0.362867","-0.118937","-0.932103","190","502","36",
"157.333","0.337081","-0.179196","-0.930129","190","502","36",
"157.378","0.359773","-0.215746","-0.887694","190","502","36",
"157.424","0.314389","-0.267114","-0.888681","196","544","42",
"157.47","0.352553","-0.290823","-0.884733","196","544","42",
"157.517","0.339144","-0.3333","-0.861048","196","585","48",
"157.563","0.372151","-0.34713","-0.846245","196","585","48",
"157.609","0.361836","-0.409365","-0.859074","213","650","30",
"157.655","0.35771","-0.442952","-0.831442","213","650","30",
"157.701","0.35049","-0.475551","-0.809731","208","709","0",
"157.746","0.327798","-0.519016","-0.783085","208","709","0",
"157.792","0.348427","-0.564457","-0.785059","208","965","6",
"157.838","0.325735","-0.565445","-0.766308","196","774","6",
"157.884","0.3082","-0.589153","-0.729794","196","774","6",
"157.93","0.306137","-0.610886","-0.722886","237","822","-6",
"157.975","0.274162","-0.639534","-0.616303","237","822","-6",
"158.021","0.247344","-0.679048","-0.658739","267","875","-24",
"158.067","0.222589","-0.965524","-0.682424","267","875","-24",
"158.114","0.208149","-0.741282","-0.603474","290","946","-36",
"158.16","0.179268","-0.774869","-0.613343","290","946","-36",
"158.205","0.162764","-0.768942","-0.562025","308","1011","-61",
"158.251","0.162764","-0.778821","-0.556104","308","1011","-61",
"158.297","0.140072","-0.845006","-0.484062","308","1011","-61",
"158.344","0.146261","-0.850933","-0.453469","314","1076","-97",
"158.39","0.165859","-0.851921","-0.413994","314","1076","-97",
"158.436","0.146261","-0.907241","-0.42485","320","1105","-164",
"158.483","0.148324","-0.911192","-0.34886","320","1105","-164",
"158.529","0.144198","-0.929962","-0.291621","302","1176","-244",
"158.575","0.14523","-0.93984","-0.225501","302","1176","-244",
"158.621","0.162764","-0.948731","-0.21958","308","1206","-305",
"158.667","0.161733","-0.924034","-0.176157","308","1206","-305",
"158.713","0.14523","-0.978366","-0.170236","338","1236","-397",
"158.759","0.132852","-0.945767","-0.137669","338","1236","-397",
"158.805","0.150387","-0.921071","-0.074509","338","1236","-397",
"158.851","0.129758","-1.023807","-0.055758","326","1212","-403",
"158.898","0.135946","-0.992196","0.008388","326","1212","-403",
"158.944","0.157607","-0.944779","0.040955","326","1236","-446",
"158.99","0.163796","-0.937864","0.036021","326","1236","-446",
"159.036","0.167922","-0.942804","0.157406","320","1253","-488",
"159.082","0.155544","-0.99022","0.169249","320","1253","-488",
"159.128","0.172047","-1.014917","0.163328","326","1247","-543",
"159.174","0.165859","-0.956633","0.158393","326","1247","-543",
"159.22","0.16689","-0.877605","0.194908","308","1218","-611",
"159.267","0.182362","-0.868715","0.211685","308","1218","-611",
"159.314","0.202991","-0.928974","0.243265","308","1218","-611",
"159.359","0.250438","-0.883533","0.454456","308","1218","-659",
"159.405","0.234966","-0.862788","0.440639","308","1218","-659",
"159.451","0.263847","-0.937864","0.37748","261","1200","-684",
"159.497","0.281382","-0.866739","0.411033","261","1200","-684",
"159.543","0.313357","-0.880569","0.453469","243","1182","-690",
"159.59","0.344301","-0.79265","0.52255","243","1182","-690",
"159.636","0.347396","-0.464684","0.471233","231","1141","-726",
"159.682","0.396906","-0.743258","0.488996","231","1141","-726",
"159.728","0.429912","-0.799565","0.474193","196","1094","-708",
"159.775","0.477359","-0.777833","0.635054","196","1094","-708",
"159.822","0.471171","-0.679048","0.577815","196","1094","-708",
"159.868","0.469108","-0.657315","0.462351","172","1064","-733",
"159.915","0.43507","-0.666206","0.474193","172","1064","-733",
"159.962","0.518618","-0.739307","0.546235","166","1035","-702",
"160.009","0.582568","-0.615825","0.666634","166","1035","-702",
"160.055","0.571222","-0.61385","0.544261","125","999","-714",
"160.101","0.569159","-0.548652","0.529458","125","999","-714",
"160.147","0.617638","-0.561494","0.49097","77","946","-690",
"160.192","0.641362","-0.539761","0.586697","77","946","-690",
"160.238","0.681588","-0.502223","0.533406","66","899","-678",
"160.284","0.707375","-0.50321","0.267936","66","899","-678",
"160.33","0.728004","-0.437025","0.566959","66","899","-678",
"160.376","0.709438","-0.491356","0.492944","12","893","-659",
"160.422","0.753791","-0.703744","0.500839","12","893","-659",
"160.468","0.789892","-0.435049","0.545248","0","863","-611",
"160.514","0.789892","-0.354045","0.447548","0","863","-611",
"160.56","0.825993","-0.35207","0.462351","30","822","-586",
"160.606","0.825993","-0.372814","0.467285","30","822","-586",
"160.652","0.86622","-0.309592","0.467285","0","780","-543",
"160.698","0.839402","-0.328361","0.354781","0","780","-543",
"160.744","0.886849","-0.217722","0.449521","0","733","-513",
"160.79","0.894069","-0.289835","0.391296","0","733","-513",
"160.836","0.914698","-0.301689","0.392283","0","733","-513",
"160.882","0.913667","-0.230564","0.357742","-23","697","-464",
"160.928","0.926044","-0.457769","0.303464","-23","697","-464",
"160.974","0.952862","-0.202904","0.323201","-23","680","-446",
"161.02","0.992058","-0.223649","0.313333","-23","680","-446",
"161.067","0.97246","-0.179196","0.247212","-23","626","-384",
"161.114","0.956988","-0.17722","0.149512","-23","626","-384",
"161.16","1.039505","-0.165366","0.217606","12","603","-317",
"161.206","1.017844","-0.082387","0.247212","12","603","-317",
"161.252","1.020939","-0.106095","0.128787","18","609","-274",
"161.297","1.010624","-0.120913","0.107076","18","609","-274",
"161.343","1.026096","-0.125852","0.092273","18","609","-274",
"161.39","1.046725","-0.043861","0.062667","24","579","-207",
"161.436","1.073543","-0.090289","0.072535","24","579","-207",
"161.482","1.043631","-0.053739","0.004441","48","561","-177",
"161.527","1.01475","-0.046824","-0.024178","48","561","-177",
"161.573","1.008561","-0.029043","-0.051811","89","561","-134",
"161.619","1.025064","-0.031018","-0.099181","89","561","-134",
"161.665","1.060134","-0.044848","-0.086352","101","555","-91",
"161.711","1.045694","-0.044848","-0.120892","101","555","-91",
"161.757","1.02197","0.011459","-0.164315","101","520","-48",
"161.804","1.004435","-0.024104","-0.186026","125","520","-48",
"161.849","1.01475","0.004544","-0.188986","125","520","-48",
"161.895","1.001341","0.022325","-0.204776","166","485","-6",
"161.941","1.010624","0.008496","-0.253133","166","485","-6",
"161.986","1.02197","-0.009286","-0.249186","196","496","12",
"162.032","0.992058","0.002568","-0.302477","196","496","12",
"162.078","0.997215","-0.018176","-0.30149","208","490","55",
"162.125","1.01475","-0.001383","-0.31728","208","490","55",
"162.171","0.978649","0.003556","-0.334057","231","496","67",
"162.217","0.961114","-0.009286","-0.362676","231","496","67",
"162.263","0.983806","-0.012249","-0.372545","231","496","103",
"162.31","0.954925","-0.026079","-0.376493","261","490","103",
"162.356","0.950799","-0.009286","-0.410046","261","490","103",
"162.403","0.948736","-0.054727","-0.42485","308","484","109",
"162.45","0.948736","-0.020152","-0.439653","308","484","109",
"162.496","0.911604","-0.002371","-0.442613","290","479","128",
"162.542","0.911604","-0.045836","-0.467285","290","479","128",
"162.588","0.941516","-0.060654","-0.491957","344","473","134",
"162.634","0.900258","-0.028055","-0.482088","344","473","134",
"162.679","0.913667","-0.061642","-0.521563","379","461","164",
"162.725","0.87344","-0.036946","-0.517616","379","461","164",
"162.771","0.921919","-0.059666","-0.549196","379","461","183",
"162.818","0.88066","-0.068557","-0.563012","397","467","183",
"162.864","0.849716","-0.115974","-0.574854","397","467","183",
"162.91","0.83837","-0.042873","-0.564986","409","473","201",
"162.956","0.814647","-0.068557","-0.586697","409","473","201",
"163.002","0.817741","-0.053739","-0.604461","456","443","207",
"163.048","0.847653","-0.093253","-0.624198","456","443","207",
"163.094","0.789892","-0.051763","-0.620251","468","461","207",
"163.14","0.778546","-0.11301","-0.658739","468","461","207",
"163.187","0.78886","-0.120913","-0.649857","485","455","226",
"163.233","0.764105","-0.138694","-0.660713","485","455","226",
"163.279","0.787829","-0.110046","-0.672555","485","455","226",
"163.325","0.723878","-0.150548","-0.702161","497","461","250",
"163.371","0.734193","-0.1545","-0.728807","497","461","250",
"163.418","0.723878","-0.136718","-0.722886","551","425","226",
"163.464","0.65477","-0.07646","-0.665647","551","425","226",
"163.51","0.677463","-0.06263","-0.993289","574","408","232",
"163.556","0.64755","-0.181172","-0.79098","574","408","232",
"163.603","0.646519","-0.115974","-0.795914","586","419","250",
"163.649","0.59804","-0.242418","-0.816639","586","419","250",
"163.695","0.59804","-0.103131","-0.793941","663","408","268",
"163.741","0.542341","-0.116961","-0.817626","663","408","268",
"163.786","0.410315","-0.172281","-0.833416","663","408","268",
"163.832","0.492831","-0.224637","-0.853153","740","378","250",
"163.879","0.459825","-0.147585","-1.224218","740","378","250",
"163.925","0.454667","-0.220686","-0.801836","728","402","281",
"163.971","0.418566","-0.205868","-0.871904","728","402","281",
"164.016","0.386591","-0.219698","-0.942959","746","408","274",
"164.062","0.370088","-0.176232","-0.904471","746","408","274",
"164.107","0.359773","-0.144621","-0.910392","781","378","268",
"164.153","0.349458","-0.167342","-0.929142","781","378","268",
"164.199","0.3082","-0.220686","-0.969604","805","348","268",
"164.245","0.250438","-0.180184","-0.972565","805","348","268",
"164.291","0.257659","-0.091277","-0.942959","805","348","268",
"164.337","0.256627","-0.013237","-0.915326","852","283","232",
"164.383","0.239092","-0.029043","-0.918287","852","283","232",
"164.429","0.248375","-0.06263","-0.959736","858","277","219",
"164.475","0.24425","-0.014225","-0.96467","858","277","219",
"164.521","0.210211","-0.004347","-0.943946","852","218","226",
"164.567","0.25147","-0.049788","-0.994276","852","218","226",
"164.613","0.202991","-0.00731","-0.962696","858","189","189",
"164.659","0.211243","-0.001383","-0.968617","858","189","189",
"164.706","0.192677","-0.008298","-0.954801","870","177","207",
"164.752","0.138009","0.002568","-0.973552","870","177","207",
"164.798","0.106034","0.125062","-0.976512","870","177","207",
"164.844","0.079216","0.133952","-0.928156","846","153","183",
"164.89","0.11738","0.081596","-0.961709","846","153","183",
"164.935","0.146261","0.058876","-1.022895","870","112","152",
"164.981","0.079216","0.099378","-0.960722","870","112","152",
"165.027","0.083342","0.222859","-0.951841","858","94","146",
"165.073","0.11016","0.161612","-0.943946","858","94","146",
"165.119","0.08231","0.163588","-0.992302","864","65","146",
"165.165","0.066839","0.19026","-0.959736","864","65","146",
"165.212","0.017329","0.232737","-0.939011","864","65","122",
"165.258","0.044146","0.273239","-0.950854","864","35","122",
"165.304","-0.009489","0.544898","-0.93309","864","35","122",
"165.35","0.033832","0.352267","-0.872891","900","0","73",
"165.396","-0.010521","0.413514","-0.861048","900","0","73",
"165.442","0.024549","0.555764","-0.942959","900","-66","30",
"165.488","0.090562","0.798775","-0.871904","900","-66","30",
"165.534","0.050335","0.544898","-0.83835","917","-184","-110",
"165.58","0.054461","0.579472","-0.777164","917","-184","-110",
"165.626","0.069933","0.588363","-0.783085","876","-208","-171",
"165.672","0.101908","0.598242","-0.771242","876","-208","-171",
"165.719","0.11738","0.568606","-0.766308","876","-208","-171",
"165.766","0.112223","0.584412","-0.767295","852","-202","-183",
"165.812","0.11738","0.587375","-0.748544","852","-202","-183",
"165.858","0.111191","0.591327","-0.735715","805","-237","-183",
"165.904","0.133883","0.637756","-0.821573","805","-237","-183",
"165.95","0.151418","0.646646","-0.786046","746","-243","-238",
"165.996","0.134915","0.647634","-0.71203","746","-243","-238",
"166.043","0.180299","0.632816","-0.753479","728","-255","-238",
"166.089","0.167922","0.647634","-0.755452","728","-255","-238",
"166.136","0.172047","0.64961","-0.731767","710","-273","-256",
"166.183","0.185456","0.591327","-0.736702","710","-273","-256",
"166.229","0.163796","0.675294","-0.692293","710","-273","-268",
"166.275","0.109128","0.711844","-0.69624","693","-273","-268",
"166.32","0.148324","0.758273","-0.502813","693","-273","-268",
"166.366","0.125632","0.688136","-0.705122","687","-261","-299",
"166.413","0.126663","0.610096","-0.685384","687","-261","-299",
"166.459","0.148324","0.714808","-0.629133","681","-261","-317",
"166.505","0.150387","0.729626","-0.690319","681","-261","-317",
"166.553","0.153481","0.699002","-0.675516","627","-267","-336",
"166.6","0.160701","0.674306","-0.668608","627","-267","-336",
"166.646","0.184425","0.684185","-0.626172","586","-261","-305",
"166.693","0.190614","0.704929","-0.693279","586","-261","-305",
"166.74","0.221557","0.679245","-0.665647","551","-243","-342",
"166.786","0.198865","0.793836","-0.582749","551","-243","-342",
"166.832","0.179268","0.702954","-0.630119","551","-243","-342",
"166.879","0.169985","0.674306","-0.710056","545","-231","-336",
"166.926","0.226715","0.752346","-0.578802","545","-231","-336",
"166.972","0.239092","0.794824","-0.520576","468","-243","-409",
"167.018","0.218463","0.798775","-0.571894","468","-243","-409",
"167.064","0.213306","0.824459","-0.543274","450","-225","-415",
"167.11","0.240124","0.809641","-0.500839","450","-225","-415",
"167.156","0.272099","0.795812","-0.455443","403","-208","-458",
"167.203","0.218463","0.886694","-0.509721","403","-208","-458",
"167.25","0.253533","0.780006","-0.619264","403","-190","-488",
"167.296","0.276225","0.785933","-0.461364","403","-190","-488",
"167.342","0.35049","0.707893","-0.675516","403","-190","-488",
"167.389","0.322641","0.817544","-0.511694","391","-202","-452",
"167.436","0.2164","0.825447","-0.504786","391","-202","-452",
"167.482","0.228778","0.784945","-0.557091","349","-166","-403",
"167.528","0.227746","0.785933","-0.499852","349","-166","-403",
"167.574","0.234966","1.05364","-0.527484","314","-142","-348",
"167.62","0.281382","0.747407","-0.577815","314","-142","-348",
"167.666","0.284477","0.812605","-0.567946","308","-119","-366",
"167.712","0.313357","0.740492","-0.977499","308","-119","-366",
"167.758","0.290665","0.825447","-0.318267","290","-107","-366",
"167.804","0.325735","0.766176","-0.407086","290","-107","-366",
"167.851","0.288602","0.75531","-0.560051","290","-107","-366",
"167.896","0.311294","0.793836","-0.587684","296","-113","-354",
"167.942","0.312326","0.749383","-0.516629","296","-113","-354",
"167.988","0.305106","0.879779","-0.484062","261","-95","-360",
"168.034","0.344301","0.767164","-0.385375","261","-95","-360",
"168.081","0.418566","0.845204","-0.387348","231","-77","-409",
"168.127","0.340175","0.874839","-0.386361","231","-77","-409",
"168.173","0.377308","0.876815","-0.315306","208","-60","-488",
"168.219","0.369056","0.875827","-0.267936","208","-60","-488",
"168.265","0.373182","0.904475","-0.276818","208","-71","-531",
"168.311","0.418566","0.914353","-0.157406","190","-71","-531",
"168.357","0.402063","0.905463","-0.261028","190","-71","-531",
"168.403","0.391748","0.863973","-0.214645","196","-36","-568",
"168.449","0.382465","0.917317","-0.177144","196","-36","-568",
"168.494","0.405157","0.918305","-0.091286","166","-30","-629",
"168.54","0.431975","0.900524","-0.084378","166","-30","-629",
"168.586","0.402063","0.915341","-0.100168","166","-18","-635",
"168.633","0.397937","0.915341","-0.08043","166","-18","-635",
"168.679","0.406189","0.916329","-0.054772","160","-12","-647",
"168.725","0.415472","0.907439","-0.044903","160","-12","-647",
"168.771","0.423724","0.905463","-0.015297","160","-12","-660",
"168.818","0.417535","0.923244","-0.004441","154","-6","-660",
"168.864","0.437133","0.900524","-0.23833","154","-6","-660",
"168.91","0.434038","0.884718","0.023192","154","-6","-666",
"168.955","0.418566","0.910402","0.023192","154","-6","-666",
"169.002","0.447447","0.893609","0.108063","166","11","-696",
"169.049","0.478391","0.88373","0.060693","166","11","-696",
"169.094","0.49902","0.84224","0.110037","148","53","-714",
"169.14","0.508303","0.858046","0.12484","148","53","-714",
"169.186","0.519649","0.861997","0.155433","95","94","-715",
"169.232","0.518618","0.838289","0.166288","95","94","-715",
"169.277","0.517586","0.839277","0.182078","95","94","-715",
"169.323","0.539247","0.826435","0.20675","95","130","-733",
"169.369","0.53409","0.829398","0.217606","95","130","-733",
"169.415","0.281382","0.813593","0.212671","89","118","-745",
"169.461","0.542341","0.812605","0.232409","89","118","-745",
"169.506","0.536153","0.807666","0.22254","89","136","-733",
"169.551","0.493863","0.871876","0.294582","89","136","-733",
"169.597","0.571222","0.782969","0.275831","77","159","-751",
"169.644","0.581537","0.753334","0.281753","77","159","-751",
"169.69","0.550593","0.777042","0.320241","77","136","-763",
"169.735","0.559876","0.763213","0.350834","77","136","-763",
"169.781","0.528932","0.762225","0.341952","77","136","-763",
"169.827","0.523775","0.783957","0.376493","89","171","-751",
"169.873","0.530995","0.77803","0.402151","89","171","-751",
"169.919","0.537184","0.757285","0.423863","77","171","-776",
"169.965","0.803301","0.720735","0.406099","77","171","-776",
"170.011","0.53409","0.762225","0.439653","71","159","-794",
"170.057","0.549562","0.728638","0.401165","71","159","-794",
"170.103","0.570191","0.723698","0.436692","95","183","-788",
"170.149","0.552656","0.720735","0.446561","95","183","-788",
"170.195","0.557813","0.705917","0.42485","95","183","-782",
"170.241","0.572254","0.700978","0.435705","66","201","-782",
"170.287","0.594946","0.680233","0.441626","66","201","-782",
"170.332","0.566065","0.694063","0.438666","83","207","-788",
"170.379","0.577411","0.695051","0.441626","83","207","-788",
"170.425","0.5836","0.700978","0.480114","66","201","-782",
"170.471","0.589789","0.699002","0.45939","66","201","-782",
"170.517","0.621764","0.669367","0.426823","71","218","-751",
"170.563","0.628984","0.66344","0.375506","71","218","-751",
"170.61","0.588757","0.695051","0.402151","48","207","-739",
"170.655","0.65477","0.669367","0.344913","48","207","-739",
"170.701","0.658896","0.67233","0.340965","48","207","-739",
"170.747","0.656833","0.69999","0.312346","30","242","-690",
"170.793","0.684683","0.668379","0.257081","30","242","-690",
"170.839","0.68984","0.704929","0.265963","24","248","-654",
"170.885","0.708406","0.694063","0.25116","24","248","-654",
"170.931","0.716658","0.717771","0.229448","18","254","-611",
"170.976","0.709438","0.684185","0.230435","18","254","-611",
"171.023","0.728004","0.699002","0.221553","12","272","-586",
"171.069","0.696029","0.697027","0.228461","12","272","-586",
"171.115","0.716658","0.731601","0.216619","-5","278","-605",
"171.162","0.652708","0.730613","0.237343","-5","278","-605",
"171.208","0.673337","0.703942","0.290635","-5","278","-605",
"171.254","0.650645","0.719747","0.278792","18","260","-629",
"171.3","0.630015","0.700978","0.288661","18","260","-629",
"171.346","0.620732","0.722711","0.310372","30","248","-672",
"171.392","0.630015","0.721723","0.337018","30","248","-672",
"171.438","0.626921","0.698014","0.312346","24","260","-788",
"171.484","0.607323","0.709869","0.343926","24","260","-788",
"171.529","0.611449","0.734565","0.358729","60","248","-800",
"171.575","0.599072","0.71382","0.343926","60","248","-800",
"171.621","0.577411","0.745431","0.378466","60","230","-849",
"171.667","0.595977","0.757285","0.371558","42","230","-849",
"171.713","0.57638","0.718759","0.373532","42","230","-849",
"171.758","0.571222","0.75037","0.391296","77","218","-831",
"171.804","0.567096","0.737528","0.365637","77","218","-831",
"171.851","0.529964","0.743455","0.422876","95","224","-898",
"171.896","0.518618","0.743455","0.378466","95","224","-898",
"171.942","0.518618","0.763213","0.404125","113","224","-922",
"171.988","0.493863","0.746419","0.408073","113","224","-922",
"172.035","0.474265","0.757285","0.429784","142","207","-959",
"172.081","0.476328","0.757285","0.433731","142","207","-959",
"172.127","0.490768","0.752346","0.407086","142","207","-959",
"172.173","0.476328","0.777042","0.444587","178","212","-977",
"172.22","0.437133","0.790872","0.4436","178","212","-977",
"172.266","0.371119","0.752346","0.392283","184","189","-984",
"172.312","0.404126","0.79186","0.417941","184","189","-984",
"172.358","0.380402","0.820508","0.405112","213","130","-996",
"172.404","0.38556","0.81952","0.413994","213","130","-996",
"172.45","0.387622","0.841253","0.413007","255","124","-1014",
"172.496","0.319546","0.81952","0.39623","255","124","-1014",
"172.542","0.389685","0.855083","0.460377","267","124","-1039",
"172.588","0.36493","0.781982","0.433731","267","124","-1039",
"172.635","0.370088","0.811617","0.437679","267","124","-1039",
"172.681","0.351521","0.840265","0.445574","273","136","-1069",
"172.727","0.313357","0.81952","0.428797","273","136","-1069",
"172.774","0.363899","0.859034","0.482088","320","124","-1057",
"172.821","0.344301","0.821496","0.280766","320","124","-1057",
"172.867","0.289634","0.79186","0.473206","320","141","-1100",
"172.913","0.284477","0.828411","0.488009","320","141","-1100",
"172.959","0.271068","0.836313","0.434718","349","159","-1124",
"173.005","0.296854","0.830386","0.466298","349","159","-1124",
"173.051","0.263847","0.841253","0.509721","373","136","-1161",
"173.097","0.291697","0.83335","0.450508","373","136","-1161",
"173.143","0.254564","0.839277","0.411033","373","136","-1161",
"173.189","0.259722","0.850143","0.446561","379","100","-1173",
"173.236","0.307169","0.777042","0.45939","379","100","-1173",
"173.282","0.234966","0.895584","0.439653","426","100","-1149",
"173.329","0.274162","0.863973","0.428797","426","100","-1149",
"173.375","0.277256","0.834338","0.493931","426","88","-1149",
"173.421","0.270036","0.841253","0.462351","426","88","-1149",
"173.467","0.276225","0.896572","0.370571","444","112","-1161",
"173.513","0.24425","0.831374","0.471233","444","112","-1161",
"173.558","0.254564","0.8699","0.444587","462","94","-1185",
"173.604","0.221557","0.797787","0.267936","462","94","-1185",
"173.65","0.254564","0.867925","0.42485","462","94","-1185",
"173.696","0.275193","0.861997","0.409059","486","94","-1185",
"173.742","0.322641","0.88373","0.331096","486","94","-1185",
"173.788","0.238061","0.88373","0.435705","509","82","-1191",
"173.835","0.286539","0.864961","0.448534","509","82","-1191",
"173.881","0.229809","0.829398","0.413007","509","76","-1198",
"173.927","0.238061","0.896572","0.402151","509","76","-1198",
"173.973","0.254564","0.863973","0.401165","521","94","-1204",
"174.019","0.266942","0.860022","0.419915","521","94","-1204",
"174.065","0.24425","0.942013","0.452482","527","76","-1185",
"174.111","0.231872","0.846192","0.420902","527","76","-1185",
"174.157","0.271068","0.827423","0.414981","527","76","-1185",
"174.203","0.253533","0.870888","0.365637","557","59","-1198",
"174.249","0.240124","0.880767","0.367611","557","59","-1198",
"174.295","0.25147","0.894596","0.258068","574","65","-1185",
"174.341","0.222589","0.909414","0.388335","574","65","-1185",
"174.387","0.26591","0.893609","0.328136","610","29","-1191",
"174.433","0.229809","0.843228","0.354781","610","29","-1191",
"174.479","0.184425","0.941025","0.337018","622","23","-1173",
"174.525","0.205054","0.917317","0.312346","622","23","-1173",
"174.571","0.190614","0.98943","0.33011","622","-24","-1142",
"174.617","0.215369","0.893609","0.295569","633","-24","-1142",
"174.663","0.195771","0.895584","0.015297","633","-24","-1142",
"174.708","0.197834","0.918305","0.259055","663","-42","-1130",
"174.755","0.205054","1.000296","0.204776","663","-42","-1130",
"174.801","0.217432","0.930159","0.209711","663","-71","-1130",
"174.848","0.196802","0.957819","0.165301","663","-71","-1130",
"174.894","0.215369","0.979551","0.144577","675","-89","-1087",
"174.94","0.220526","0.930159","0.168262","675","-89","-1087",
"174.986","0.210211","0.998321","0.108063","687","-101","-1075",
"175.032","0.215369","0.973624","0.162341","687","-101","-1075",
"175.078","0.163796","0.938062","0.166288","687","-101","-1063",
"175.124","0.206086","0.972637","0.072535","681","-137","-1063",
"175.17","0.22362","0.951892","0.071548","681","-137","-1063",
"175.216","0.238061","0.970661","0.100168","693","-148","-1026",
"175.263","0.252501","1.000296","0.023192","693","-148","-1026",
"175.309","0.269005","0.905463","0.039968","698","-154","-996",
"175.355","0.214337","0.962758","0.005428","698","-154","-996",
"175.401","0.192677","0.970661","0.083391","698","-178","-977",
"175.447","0.2164","0.943001","0.04589","698","-178","-977",
"175.493","0.176173","1.141559","0.007402","675","-178","-947",
"175.539","0.25147","0.92522","-0.04589","675","-178","-947",
"175.586","0.254564","0.999309","-0.039968","675","-178","-947",
"175.632","0.218463","0.987454","-0.053785","693","-208","-947",
"175.678","0.220526","0.907439","-0.086352","693","-208","-947",
"175.724","0.215369","0.920281","-0.10905","698","-243","-892",
"175.77","0.206086","1.009187","-0.188","698","-243","-892",
"175.816","0.180299","0.927195","-0.120892","716","-267","-819",
"175.863","0.231872","0.987454","-0.237343","716","-267","-819",
"175.908","0.261784","0.907439","-0.188986","728","-261","-788",
"175.954","0.264879","0.912378","-0.347873","728","-261","-788",
"176","0.247344","0.922256","-0.362676","746","-290","-715",
"176.046","0.221557","0.884718","-0.491957","746","-290","-715",
"176.093","0.263847","0.912378","-0.467285","746","-290","-715",
"176.139","0.213306","0.868912","-0.28274","758","-290","-666",
"176.185","0.2164","0.912378","-0.431758","758","-290","-666",
"176.231","0.242187","0.904475","-0.329123","764","-308","-635",
"176.277","0.279319","0.894596","-0.335044","764","-308","-635",
"176.324","0.286539","0.921268","-0.335044","758","-290","-617",
"176.37","0.197834","0.875827","-0.273858","758","-290","-617",
"176.417","0.299948","0.945965","-0.300503","734","-284","-654",
"176.463","0.277256","0.949916","-0.274845","734","-284","-654",
"176.51","0.252501","0.855083","-0.329123","758","-290","-696",
"176.557","0.282414","0.940038","-0.003454","758","-290","-696",
"176.604","0.260753","0.936086","-0.257081","758","-290","-672",
"176.65","0.272099","0.887682","-0.318267","769","-279","-672",
"176.696","0.288602","0.943001","-0.30149","769","-279","-672",
"176.742","0.31542","0.936086","-0.372545","811","-302","-678",
"176.789","0.314389","0.944977","-0.400178","811","-302","-678",
"176.835","0.250438","0.905463","-0.230435","823","-296","-672",
"176.882","0.156576","0.846192","-0.201816","823","-296","-672",
"176.929","0.154513","0.861997","-0.306425","876","-302","-635",
"176.975","0.217432","0.93905","-0.369585","876","-302","-635",
"177.02","0.189582","0.907439","-0.383401","900","-332","-556",
"177.066","0.191645","0.89756","-0.376493","900","-332","-556",
"177.112","0.222589","0.868912","-0.309385","900","-332","-537",
"177.158","0.254564","0.861997","-0.352808","911","-296","-537",
"177.205","0.309232","0.895584","-0.386361","911","-296","-537",
"177.251","0.283445","0.878791","-0.39623","888","-296","-519",
"177.297","0.303043","0.858046","-0.358729","888","-296","-519",
"177.343","0.271068","0.867925","-0.350834","888","-314","-513",
"177.39","0.378339","0.824459","-0.3459","888","-314","-513",
"177.436","0.402063","0.878791","-0.390309","852","-314","-488",
"177.481","0.427849","0.815569","-0.403138","852","-314","-488",
"177.528","0.445384","0.863973","-0.371558","823","-296","-452",
"177.574","0.415472","0.804702","-0.373532","823","-296","-452",
"177.621","0.460856","0.826435","-0.31432","823","-296","-440",
"177.667","0.451573","0.804702","-0.36169","829","-314","-440",
"177.713","0.497989","0.810629","-0.383401","829","-314","-440",
"177.759","0.510366","0.808654","-0.336031","805","-326","-421",
"177.805","0.507272","0.790872","-0.360703","805","-326","-421",
"177.852","0.533058","0.823471","-0.363663","769","-302","-403",
"177.899","0.513461","0.780994","-0.296556","769","-302","-403",
"177.945","0.54131","0.79186","-0.326162","787","-308","-378",
"177.991","0.564002","0.799763","-0.352808","787","-308","-378",
"178.038","0.280351","0.779018","-0.343926","752","-296","-378",
"178.085","0.57638","0.781982","0.007402","752","-296","-378",
"178.132","0.574317","0.771115","-0.323201","728","-314","-372",
"178.178","0.603198","0.762225","-0.271884","728","-314","-372",
"178.225","0.602166","0.760249","-0.255107","728","-314","-372",
"178.271","0.618669","0.75531","-0.312346","722","-308","-366",
"178.318","0.63311","0.707893","-0.183065","722","-308","-366",
"178.364","0.665085","0.728638","-0.307411","710","-302","-342",
"178.41","0.659928","0.747407","-0.201816","710","-302","-342",
"178.456","0.648582","0.708881","-0.283726","675","-290","-317",
"178.502","0.692935","0.728638","-0.277805","675","-290","-317",
"178.549","0.708406","0.680233","-0.181091","627","-267","-299",
"178.596","0.753791","0.734565","-0.245238","627","-267","-299",
"178.642","0.73935","0.680233","-0.106089","586","-261","-323",
"178.688","0.773388","0.693075","-0.145564","586","-261","-323",
"178.735","0.743476","0.680233","-0.108063","586","-261","-323",
"178.781","0.744507","0.601205","-0.01431","562","-279","-348",
"178.827","0.783703","0.702954","-0.151485","562","-279","-348",
"178.873","0.802269","0.676282","-0.040955","551","-267","-378",
"178.92","0.78886","0.654549","-0.019244","551","-267","-378",
"178.966","0.78886","0.651586","-0.004441","503","-237","-378",
"179.012","0.790923","0.616023","0.095233","503","-237","-378",
"179.058","0.802269","0.601205","0.118918","462","-243","-464",
"179.104","0.801238","0.601205","0.092273","462","-243","-464",
"179.15","0.804332","0.575521","0.229448","462","-243","-488",
"179.196","0.862094","0.552801","0.200829","444","-243","-488",
"179.243","0.82393","0.509335","0.38044","444","-243","-488",
"179.289","0.863125","0.443149","0.34886","379","-219","-556",
"179.335","0.844559","0.491554","0.324188","379","-219","-556",
"179.381","0.795049","0.472785","0.347873","332","-172","-629",
"179.427","0.851779","0.508347","0.416955","332","-172","-629",
"179.473","0.836307","0.471797","0.369585","302","-142","-641",
"179.519","0.799175","0.471797","0.423863","302","-142","-641",
"179.565","0.789892","0.468833","0.479128","308","-142","-641",
"179.611","0.748633","0.433271","0.426823","308","-142","-641",
"179.658","0.750696","0.442161","0.519589","308","-148","-709",
"179.704","0.742445","0.445125","0.496891","302","-148","-709",
"179.749","0.740382","0.427344","0.570907","302","-148","-709",
"179.795","0.701186","0.418453","0.586697","302","-154","-727",
"179.841","0.678494","0.370048","0.570907","302","-154","-727",
"179.887","0.700155","0.379927","0.653804","314","-119","-788",
"179.933","0.737287","0.374988","0.615316","314","-119","-788",
"179.979","0.704281","0.395732","0.612356","308","-89","-806",
"180.024","0.668179","0.370048","0.645909","308","-89","-806",
"180.069","0.663022","0.353255","0.701174","332","-95","-831",
"180.115","0.641362","0.371036","0.630119","332","-95","-831",
"180.161","0.659928","0.337449","0.741636","332","-95","-831",
"180.206","0.614544","0.374988","0.708082","308","-95","-867",
"180.252","0.578443","0.328559","0.736702","308","-95","-867",
"180.299","0.604229","0.343376","0.752492","349","-95","-898",
"180.344","0.55575","0.337449","0.736702","349","-95","-898",
"180.39","0.544404","0.376963","0.710056","367","-89","-916",
"180.436","0.559876","0.364121","0.741636","367","-89","-916",
"180.482","0.543373","0.409562","0.804796","373","-119","-923",
"180.529","0.501083","0.39672","0.738676","373","-119","-923",
"180.575","0.46395","0.439198","0.682424","415","-142","-929",
"180.621","0.458793","0.446113","0.715977","415","-142","-929",
"180.667","0.467045","0.481675","0.757426","415","-142","-929",
"180.714","0.480454","0.47476","0.766308","415","-160","-886",
"180.761","0.480454","0.473773","0.744597","415","-160","-886",
"180.806","0.450542","0.494517","0.720912","415","-142","-861",
"180.852","0.448479","0.510323","0.713017","415","-142","-861",
"180.898","0.403094","0.510323","0.682424","420","-166","-849",
"180.944","0.451573","0.5854","0.740649","420","-166","-849",
"180.99","0.476328","0.536995","0.760387","438","-172","-812",
"181.036","0.436101","0.556752","0.729794","438","-172","-812",
"181.082","0.384528","0.590339","0.69624","438","-190","-812",
"181.128","0.386591","0.583424","0.701174","420","-190","-812",
"181.174","0.389685","0.583424","0.713017","420","-190","-812",
"181.22","0.356679","0.601205","0.698214","444","-202","-800",
"181.266","0.358742","0.616023","0.722886","444","-202","-800",
"181.312","0.320578","0.640719","0.718938","444","-190","-812",
"181.358","0.322641","0.613059","0.651831","444","-190","-812",
"181.404","0.296854","0.646646","0.691306","468","-202","-788",
"181.451","0.305106","0.646646","0.692293","468","-202","-788",
"181.497","0.323672","0.644671","0.717951","468","-219","-788",
"181.544","0.295823","0.665415","0.74361","468","-219","-788",
"181.59","0.318515","0.637756","0.734728","468","-219","-776",
"181.636","0.319546","0.636768","0.638014","486","-225","-776",
"181.682","0.227746","0.669367","0.678476","486","-225","-776",
"181.728","0.294791","0.615035","0.703148","480","-208","-812",
"181.774","0.297886","0.562679","0.689332","480","-208","-812",
"181.82","0.242187","0.660476","0.71203","468","-208","-776",
"181.866","0.02558","0.633804","0.755452","468","-208","-776",
"181.913","0.224652","0.688136","0.709069","474","-237","-806",
"181.959","0.214337","0.67727","0.700188","474","-237","-806",
"182.005","0.234966","0.664428","0.624198","491","-231","-812",
"182.05","0.183394","0.783957","0.720912","491","-231","-812",
"182.096","0.241155","0.632816","0.750518","491","-231","-812",
"182.143","0.17411","0.714808","0.608408","515","-231","-776",
"182.189","0.136978","0.752346","0.612356","515","-231","-776",
"182.236","0.066839","0.879779","0.540314","533","-261","-702",
"182.282","0.093657","0.850143","0.566959","533","-261","-702",
"182.328","0.043115","0.881754","0.449521","551","-273","-702",
"182.375","0.06787","0.857058","0.272871","551","-273","-702",
"182.421","0.023517","0.877803","0.485049","580","-290","-647",
"182.468","0.030737","0.840265","0.416955","580","-290","-647",
"182.514","-0.018773","0.899536","0.410046","586","-296","-574",
"182.56","-0.03115","0.917317","0.319254","586","-296","-574",
"182.607","-0.061062","1.225526","0.539327","586","-296","-501",
"182.653","-0.078597","0.859034","0.027139","604","-302","-501",
"182.699","-0.037339","0.909414","0.342939","604","-302","-501",
"182.746","-0.136359","1.024993","0.173196","633","-290","-415",
"182.793","-0.12295","0.962758","0.212671","633","-290","-415",
"182.839","-0.072408","0.903487","0.163328","633","-314","-397",
"182.885","-0.10851","0.959795","0.17517","633","-314","-397",
"182.932","-0.097163","0.954855","0.114971","616","-290","-391",
"182.978","-0.132233","1.032895","0.151485","616","-290","-391",
"183.024","-0.112635","0.981527","0.099181","622","-284","-360",
"183.07","-0.140485","0.990418","0.147538","622","-284","-360",
"183.116","-0.131202","0.971649","0.157406","622","-273","-317",
"183.162","-0.116761","0.95288","0.029113","639","-273","-317",
"183.209","-0.116761","0.949916","0.032073","639","-273","-317",
"183.256","-0.12295","0.982515","0.024178","639","-290","-311",
"183.302","-0.126044","0.9756","-0.006415","639","-290","-311",
"183.348","-0.116761","0.98943","-0.037008","622","-267","-262",
"183.394","-0.132233","1.002272","-0.023192","622","-267","-262",
"183.441","-0.127076","0.957819","-0.039968","610","-237","-238",
"183.487","-0.11573","0.964734","-0.111023","610","-237","-238",
"183.534","-0.121919","0.969673","-0.089312","604","-237","-220",
"183.58","-0.127076","0.94794","-0.147538","604","-237","-220",
"183.626","-0.143579","0.973624","-0.133722","604","-219","-207",
"183.673","-0.13017","0.991406","-0.139643","604","-219","-207",
"183.719","-0.125013","0.941025","-0.131748","604","-219","-207",
"183.765","-0.126044","0.958807","-0.144577","610","-225","-183",
"183.811","-0.12295","0.924232","-0.186026","610","-225","-183",
"183.858","-0.161114","0.965722","-0.20675","592","-196","-183",
"183.905","-0.128107","0.953867","-0.195895","592","-196","-183",
"183.952","-0.15802","0.982515","-0.255107","586","-202","-158",
"183.998","-0.145642","0.927195","-0.299516","586","-202","-158",
"184.044","-0.138422","0.900524","-0.280766","586","-172","-97",
"184.09","-0.201341","0.954855","-0.325175","586","-172","-97",
"184.136","-0.199278","0.935098","-0.350834","604","-172","-91",
"184.182","-0.208561","0.886694","-0.384388","604","-172","-91",
"184.229","-0.217844","0.848168","-0.434718","604","-172","-91",
"184.275","-0.256008","0.853107","-0.468272","657","-131","-42",
"184.32","-0.262197","0.808654","-0.425836","657","-131","-42",
"184.366","-0.30655","0.795812","-0.478141","681","-142","-18",
"184.412","-0.295204","0.752346","-0.429784","681","-142","-18",
"184.458","-0.345745","0.75531","-0.492944","716","-137","0",
"184.504","-0.351934","0.765188","-0.539327","716","-137","0",
"184.55","-0.327179","0.705917","-0.523537","728","-113","12",
"184.596","-0.41279","0.754322","-0.581763","728","-113","12",
"184.642","-0.371532","0.708881","-0.550183","728","-89","36",
"184.688","-0.368437","0.647634","-0.587684","728","-89","36",
"184.734","-0.397318","0.660476","-0.656765","728","-89","36",
"184.781","-0.381846","0.606144","-0.685384","740","-83","48",
"184.827","-0.34884","0.537983","-0.682424","740","-83","48",
"184.872","-0.347808","0.553788","-0.678476","734","-71","55",
"184.918","-0.336462","0.517238","-0.715977","734","-71","55",
"184.964","-0.364311","0.51625","-0.753479","746","-60","55",
"185.01","-0.298298","0.489578","-0.709069","746","-60","55",
"185.055","-0.286952","0.475748","-0.729794","758","-107","61",
"185.101","-0.276637","0.471797","-0.844271","758","-107","61",
"185.147","-0.256008","0.448088","-0.863022","758","-107","61",
"185.193","-0.256008","0.464882","-0.821573","758","-101","24",
"185.239","-0.204435","0.462906","-0.878812","758","-101","24",
"185.285","-0.22197","0.463894","-0.862035","734","-107","-6",
"185.331","-0.161114","0.459943","-0.870917","734","-107","-6",
"185.377","-0.166271","0.444137","-0.847232","704","-107","-12",
"185.423","-0.182775","0.466858","-0.860061","704","-107","-12",
"185.469","-0.170397","0.472785","-0.813678","722","-148","-18",
"185.516","-0.174523","0.489578","-0.866969","722","-148","-18",
"185.563","-0.13017","0.436234","-0.833416","704","-131","-12",
"185.609","-0.139453","0.436234","-0.861048","704","-131","-12",
"185.655","-0.088912","0.425368","-0.830455","704","-131","-12",
"185.701","-0.03837","0.406599","-0.900523","704","-113","0",
"185.747","-0.036307","0.427344","-0.894602","704","-113","0",
"185.793","-0.003301","0.418453","-0.878812","669","-113","-18",
"185.839","-0.001238","0.433271","-0.891641","669","-113","-18",
"185.885","0.020423","0.448088","-0.881772","675","-113","-30",
"185.931","0.05343","0.421417","-0.832429","675","-113","-30",
"185.977","0.071996","0.447101","-0.915326","645","-142","-55",
"186.023","0.111191","0.45204","-0.883746","645","-142","-55",
"186.068","0.122537","0.449076","-0.879799","622","-131","-79",
"186.114","0.1246","0.464882","-0.868943","622","-131","-79",
"186.161","0.171016","0.463894","-0.843284","622","-131","-79",
"186.207","0.158638","0.461918","-0.883746","598","-137","-97",
"186.253","0.210211","0.46587","-0.788019","598","-137","-97",
"186.299","0.172047","0.4797","-0.834402","592","-148","-116",
"186.345","0.213306","0.509335","-0.832429","592","-148","-116",
"186.391","0.240124","0.466858","-0.865982","557","-160","-140",
"186.438","0.25869","0.499457","-0.815652","557","-160","-140",
"186.485","0.276225","0.505384","-0.809731","568","-137","-165",
"186.531","0.285508","0.445125","-0.820586","568","-137","-165",
"186.577","0.294791","0.499457","-0.803809","533","-166","-165",
"186.624","0.303043","0.522177","-0.82256","533","-166","-165",
"186.671","0.356679","0.48859","-0.782098","533","-166","-165",
"186.717","0.347396","0.509335","-0.809731","521","-196","-189",
"186.763","0.356679","0.51625","-0.786046","521","-196","-189",
"186.809","0.376276","0.495505","-0.780124","509","-184","-201",
"186.855","0.360805","0.520202","-0.783085","509","-184","-201",
"186.901","0.405157","0.536007","-0.754466","497","-172","-195",
"186.947","0.423724","0.482663","-0.768282","497","-172","-195",
"186.993","0.411346","0.538971","-0.751505","491","-184","-226",
"187.04","0.45673","0.51625","-0.737689","491","-184","-226",
"187.086","0.429912","0.539959","-0.685384","497","-184","-250",
"187.133","0.460856","0.563667","-0.700188","497","-184","-250",
"187.179","0.472202","0.798775","-0.702161","497","-184","-250",
"187.226","0.510366","0.53008","-0.703148","474","-196","-268",
"187.272","0.481485","0.540946","-0.69624","474","-196","-268",
"187.318","0.528932","0.569594","-0.64887","474","-208","-275",
"187.364","0.502114","0.539959","-0.660713","474","-208","-275",
"187.411","0.522744","0.570582","-0.638014","486","-213","-317",
"187.456","0.546467","0.564655","-0.646896","486","-213","-317",
"187.503","0.504177","0.702954","-0.697227","462","-196","-317",
"187.549","0.588757","0.53008","-0.535379","462","-196","-317",
"187.596","0.571222","0.800751","-0.593605","480","-225","-330",
"187.642","0.582568","0.564655","-0.631106","480","-225","-330",
"187.687","0.615575","0.57157","-0.565973","480","-225","-330",
"187.733","0.608355","0.559716","-0.536366","486","-231","-348",
"187.779","0.639299","0.569594","-0.593605","486","-231","-348",
"187.825","0.645487","0.300899","-0.478141","462","-237","-372",
"187.871","0.686746","0.558728","-0.543274","462","-237","-372",
"187.917","0.687777","0.588363","-0.589658","462","-231","-385",
"187.963","0.690872","0.548849","-0.453469","462","-231","-385",
"188.009","0.731099","0.554776","-0.735715","450","-219","-415",
"188.056","0.719752","0.569594","-0.462351","450","-219","-415",
"188.102","0.709438","0.298923","-0.418928","456","-243","-428",
"188.148","0.745539","0.559716","-0.484062","456","-243","-428",
"188.195","0.718721","0.799763","-0.470246","456","-243","-428",
"188.241","0.755854","0.611084","-0.442613","426","-196","-415",
"188.288","0.772357","0.499457","-0.382414","426","-196","-415",
"188.334","0.747602","0.534031","-0.350834","415","-213","-464",
"188.38","0.777514","0.466858","-0.26695","415","-213","-464",
"188.425","0.825993","0.535019","-0.387348","403","-237","-482",
"188.471","0.879629","0.541934","-0.37748","403","-237","-482",
"188.517","0.876534","0.496493","-0.168262","391","-202","-483",
"188.563","0.82393","0.517238","-0.302477","391","-202","-483",
"188.61","0.867251","0.51625","-0.492944","391","-190","-513",
"188.656","0.886849","0.517238","-0.265963","391","-190","-513",
"188.702","0.912635","0.487603","-0.153459","391","-190","-513",
"188.749","0.870346","0.472785","-0.121879","373","-208","-550",
"188.796","0.830119","0.533044","-0.165301","373","-208","-550",
"188.842","0.852811","0.480688","-0.003454","373","-202","-562",
"188.888","0.889943","0.489578","-0.149512","373","-202","-562",
"188.934","0.975554","0.550825","-0.101155","379","-196","-556",
"188.98","0.93739","0.490566","-0.049837","379","-196","-556",
"189.026","0.883754","0.447101","-0.237343","367","-208","-593",
"189.072","0.914698","0.504396","-0.034047","367","-208","-593",
"189.118","0.928107","0.464882","0.050824","367","-172","-617",
"189.164","0.886849","0.471797","0.087338","367","-172","-617",
"189.211","0.948736","0.46587","0.11201","367","-172","-617",
"189.258","0.902321","0.443149","0.133722","355","-172","-660",
"189.304","0.903352","0.468833","0.171223","355","-172","-660",
"189.35","0.879629","0.446113","0.178131","344","-184","-684",
"189.397","0.888912","0.420429","0.320241","344","-184","-684",
"189.443","0.889943","0.39672","0.236356","355","-166","-739",
"189.489","0.902321","0.436234","0.293595","355","-166","-739",
"189.535","0.895101","0.390793","0.335044","332","-154","-751",
"189.581","0.874471","0.386842","0.335044","332","-154","-751",
"189.627","0.882723","0.397708","0.331096","349","-131","-776",
"189.673","0.884786","0.389805","0.354781","349","-131","-776",
"189.719","0.879629","0.404623","0.36169","349","-131","-776",
"189.765","0.855905","0.374","0.387348","338","-125","-764",
"189.812","0.861062","0.369061","0.415968","338","-125","-764",
"189.859","0.833213","0.377951","0.441626","355","-137","-800",
"189.905","0.549562","0.375975","0.434718","355","-137","-800",
"189.95","0.821867","0.339425","0.497878","349","-137","-825",
"189.996","0.827024","0.357206","0.487023","349","-137","-825",
"190.043","0.815678","0.357206","0.508734","332","-131","-862",
"190.089","0.804332","0.357206","0.536366","332","-131","-862",
"190.135","0.800206","0.338437","0.550183","367","-107","-874",
"190.181","0.766168","0.36017","0.557091","367","-107","-874",
"190.227","0.744507","0.340413","0.56992","367","-107","-874",
"190.273","0.753791","0.347328","0.600513","379","-107","-892",
"190.319","0.737287","0.344364","0.597553","379","-107","-892",
"190.365","0.735224","0.359182","0.613343","415","-119","-892",
"190.411","0.700155","0.333498","0.64887","415","-119","-892",
"190.457","0.686746","0.352267","0.644923","420","-119","-916",
"190.503","0.670242","0.366097","0.655778","420","-119","-916",
"190.549","0.665085","0.361158","0.647883","415","-113","-935",
"190.596","0.635173","0.333498","0.707096","415","-113","-935",
"190.642","0.630015","0.356219","0.690319","415","-107","-959",
"190.688","0.60526","0.322632","0.722886","462","-107","-959",
"190.734","0.614544","0.348316","0.714004","462","-107","-959",
"190.781","0.599072","0.329547","0.752492","468","-107","-972",
"190.827","0.571222","0.334486","0.714991","468","-107","-972",
"190.873","0.556782","0.302875","0.776177","486","-113","-996",
"190.919","0.565033","0.30485","0.77519","486","-113","-996",
"190.964","0.542341","0.31868","0.783085","486","-95","-1002",
"191.01","0.502114","0.292008","0.751505","486","-95","-1002",
"191.056","0.533058","0.328559","0.817626","503","-95","-1026",
"191.102","0.553687","0.345352","0.804796","503","-95","-1026",
"191.149","0.504177","0.31868","0.793941","503","-95","-1008",
"191.195","0.466013","0.316705","0.828481","503","-101","-1008",
"191.241","0.453636","0.319668","0.779137","503","-101","-1008",
"191.287","0.44951","0.351279","0.836376","503","-107","-1021",
"191.333","0.428881","0.33251","0.871904","503","-107","-1021",
"191.379","0.410315","0.351279","0.874864","509","-113","-1033",
"191.425","0.384528","0.38289","0.816639","509","-113","-1033",
"191.471","0.380402","0.348316","0.829468","527","-113","-1020",
"191.517","0.363899","0.357206","0.890654","527","-113","-1020",
"191.564","0.371119","0.398696","0.836376","551","-119","-1033",
"191.61","0.324703","0.375975","0.865982","551","-119","-1033",
"191.656","0.3082","0.402647","0.850192","551","-119","-1033",
"191.702","0.296854","0.391781","0.88572","580","-119","-1021",
"191.75","0.019391","0.388818","0.840324","580","-119","-1021",
"191.797","0.26591","0.435246","0.851179","610","-142","-1026",
"191.843","0.22362","0.459943","0.883746","610","-142","-1026",
"191.888","0.183394","0.426356","0.868943","627","-148","-1008",
"191.935","0.196802","0.425368","0.868943","627","-148","-1008",
"191.981","0.138009","0.39672","0.860061","639","-172","-1020",
"192.026","0.179268","0.455003","0.877825","639","-172","-1020",
"192.072","0.163796","0.456979","0.86993","645","-160","-1008",
"192.118","0.165859","0.455991","0.863022","645","-160","-1008",
"192.164","0.192677","0.481675","0.870917","645","-160","-1008",
"192.211","0.168953","0.472785","0.83835","639","-178","-990",
"192.257","0.183394","0.53008","0.918287","639","-178","-990",
"192.303","0.155544","0.486615","0.888681","622","-184","-990",
"192.349","0.123569","0.426356","0.771242","622","-184","-990",
"192.394","0.099845","0.467845","0.819599","633","-166","-996",
"192.439","0.119443","0.483651","0.910392","633","-166","-996",
"192.485","0.074059","0.485627","0.83835","663","-166","-1002",
"192.531","0.096751","0.51625","0.833416","663","-166","-1002",
"192.578","0.052398","0.563667","0.792954","693","-202","-984",
"192.623","0.08231","0.792848","0.861048","693","-202","-984",
"192.67","0.055493","0.583424","0.998224","693","-202","-984",
"192.716","0.059618","0.535019","0.845258","687","-249","-922",
"192.762","0.031769","0.613059","1.021909","687","-249","-922",
"192.808","-0.010521","0.631828","0.69624","710","-255","-898",
"192.854","0.042084","0.618986","0.802822","710","-255","-898",
"192.9","-0.028056","0.634792","0.741636","698","-243","-898",
"192.946","-0.028056","0.600217","0.784072","698","-243","-898",
"192.993","-0.032182","0.656525","0.798875","716","-249","-880",
"193.039","-0.027024","0.626889","0.736702","716","-249","-880",
"193.085","-0.055905","0.651586","0.729794","740","-261","-874",
"193.131","-0.061062","0.678257","0.744597","740","-261","-874",
"193.177","-0.08066","0.689124","0.718938","740","-261","-874",
"193.223","-0.083755","0.685172","0.722886","746","-279","-862",
"193.269","-0.120887","0.701966","0.671568","746","-279","-862",
"193.316","-0.13017","0.735553","0.652818","769","-284","-812",
"193.362","-0.155957","0.746419","0.640975","769","-284","-812",
"193.408","-0.180712","1.01709","0.586697","811","-290","-751",
"193.455","-0.1869","0.779018","0.616303","811","-290","-751",
"193.501","-0.164208","0.740492","0.615316","799","-314","-727",
"193.547","-0.196184","0.554776","0.513668","799","-314","-727",
"193.593","-0.170397","0.550825","0.561038","799","-320","-678",
"193.64","-0.187932","0.831374","0.761374","823","-320","-678",
"193.686","-0.208561","0.822483","0.453469","823","-320","-678",
"193.732","-0.209593","0.832362","0.507747","834","-326","-647",
"193.779","-0.217844","0.851131","0.467285","834","-326","-647",
"193.825","-0.231253","0.83335","0.366624","793","-332","-580",
"193.871","-0.20753","0.853107","0.42485","793","-332","-580",
"193.917","-0.20753","0.853107","0.357742","805","-344","-531",
"193.963","-0.258071","0.91139","0.307411","805","-344","-531",
"194.009","-0.242599","0.948928","0.358729","775","-344","-476",
"194.055","-0.224033","0.900524","0.300503","775","-344","-476",
"194.102","-0.230222","0.915341","0.279779","764","-320","-470",
"194.148","-0.230222","0.924232","0.28274","764","-320","-470",
"194.194","-0.167303","0.890645","0.326162","764","-320","-470",
"194.24","-0.211655","0.926208","0.196881","752","-314","-458",
"194.287","-0.150799","0.943001","0.292608","752","-314","-458",
"194.334","-0.101289","0.928183","0.511694","681","-314","-446",
"194.38","-0.119856","0.992394","0.208724","681","-314","-446",
"194.426","-0.077566","0.943001","0.199842","622","-308","-427",
"194.473","-0.044559","0.937074","0.248199","622","-308","-427",
"194.52","-0.037339","0.976588","0.214645","586","-279","-434",
"194.566","0.007014","0.940038","0.21958","586","-279","-434",
"194.613","-0.000206","0.992394","0.196881","539","-249","-428",
"194.659","0.009077","0.96177","0.217606","539","-249","-428",
"194.705","0.069933","0.93411","0.182078","539","-249","-428",
"194.751","0.047241","0.998321","0.189973","503","-255","-421",
"194.797","0.119443","0.919293","0.211685","503","-255","-421",
"194.843","0.052398","1.055616","0.182078","456","-243","-409",
"194.889","0.118412","0.971649","0.184052","456","-243","-409",
"194.936","0.140072","0.943001","0.187013","438","-225","-415",
"194.982","0.103971","1.060555","0.181091","438","-225","-415",
"195.027","0.169985","0.912378","0.169249","426","-225","-421",
"195.073","0.112223","1.031908","0.147538","426","-225","-421",
"195.119","0.155544","0.959795","0.218593","426","-202","-415",
"195.165","0.150387","0.935098","0.111023","420","-202","-415",
"195.211","0.155544","0.983503","0.158393","420","-202","-415",
"195.257","0.197834","0.931147","0.167275","403","-184","-403",
"195.303","0.189582","0.965722","0.152472","403","-184","-403",
"195.349","0.217432","0.938062","0.123853","373","-196","-409",
"195.395","0.19474","0.936086","0.129774","373","-196","-409",
"195.441","0.220526","0.940038","0.114971","344","-160","-385",
"195.487","0.234966","0.992394","0.095233","344","-160","-385",
"195.534","0.263847","0.969673","0.052798","320","-131","-354",
"195.58","0.285508","0.943001","0.065627","320","-131","-354",
"195.626","0.295823","0.967697","0.012336","320","-131","-348",
"195.671","0.286539","0.957819","0.024178","296","-107","-348",
"195.718","0.336049","0.888669","0.055758","296","-107","-348",
"195.765","0.302011","1.002272","-0.034047","261","-107","-372",
"195.812","0.34327","0.918305","-0.060693","261","-107","-372",
"195.858","0.375245","0.8699","-0.158393","237","-36","-379",
"195.904","0.359773","0.959795","0.253133","237","-36","-379",
"195.951","0.398969","0.889657","-0.040955","208","-24","-324",
"195.998","0.38556","0.880767","-0.215632","208","-24","-324",
"196.044","0.406189","1.010175","-0.138656","166","17","-317",
"196.091","0.440227","0.886694","-0.225501","166","17","-317",
"196.137","0.455699","0.85607","-0.20379","154","70","-287",
"196.183","0.431975","0.903487","-0.248199","154","70","-287",
"196.229","0.458793","0.871876","-0.264976","154","70","-287",
"196.275","0.441258","0.873852","-0.265963","148","100","-269",
"196.321","0.446416","0.835325","-0.338005","148","100","-269",
"196.367","0.48458","0.788897","-0.279779","137","118","-250",
"196.413","0.419598","0.844216","-0.39327","137","118","-250",
"196.458","0.453636","0.556752","-0.322215","137","118","-226",
"196.504","0.44229","0.799763","-0.356755","137","118","-226",
"196.55","0.451573","0.832362","-0.354781","142","136","-226",
"196.597","0.48458","0.740492","-0.39327","142","136","-226",
"196.643","0.503146","0.796799","-0.404125","142","136","-201",
"196.689","0.522744","0.740492","-0.438666","131","171","-201",
"196.736","0.482517","0.562679","-0.439653","131","171","-201",
"196.782","0.497989","0.742468","-0.417941","131","177","-201",
"196.828","0.495926","0.773091","-0.4436","131","177","-201",
"196.874","0.530995","0.758273","-0.436692","107","171","-220",
"196.92","0.54853","0.732589","-0.419915","107","171","-220",
"196.966","0.55575","0.735553","-0.421889","89","201","-232",
"197.013","0.54853","0.724686","-0.411033","89","201","-232",
"197.058","0.528932","0.643683","-0.745584","66","207","-250",
"197.103","0.528932","0.681221","-0.434718","66","207","-250",
"197.15","0.516555","0.735553","-0.570907","66","207","-506",
"197.196","0.587726","0.646646","-0.423863","66","242","-262",
"197.243","0.631047","0.67727","-0.429784","66","242","-262",
"197.289","0.617638","0.655537","-0.510708","54","266","-262",
"197.335","0.638267","0.644671","-0.426823","54","266","-262",
"197.382","0.655802","0.643683","-0.477154","42","283","-275",
"197.428","0.638267","0.632816","-0.49097","42","283","-275",
"197.474","0.683651","0.556752","-0.431758","42","319","-293",
"197.52","0.645487","0.58046","-0.531432","42","319","-293",
"197.566","0.652708","0.648622","-0.499852","24","354","-269",
"197.612","0.691903","0.529092","-0.513668","24","354","-269",
"197.659","0.703249","0.527116","-0.552156","24","354","-269",
"197.705","0.791955","0.444137","-0.536366","6","408","-281",
"197.75","0.743476","0.440186","-0.642949","6","408","-281",
"197.797","0.733161","0.435246","-0.607421","0","449","-299",
"197.843","0.785766","0.363133","-0.507747","0","449","-299",
"197.889","0.748633","0.371036","-0.604461","-5","502","-299",
"197.935","0.755854","0.33251","-0.652818","-5","502","-299",
"197.981","0.813615","0.233725","-0.536366","6","550","-299",
"198.027","0.791955","0.251506","-0.58571","6","550","-299",
"198.073","0.798143","0.203102","-0.615316","6","615","-311",
"198.119","0.809489","0.151734","-0.624198","6","615","-311",
"198.165","0.792986","0.115183","-0.661699","6","615","-311",
"198.211","0.800206","0.127037","-0.607421","0","674","-354",
"198.256","0.783703","0.0569","-0.654791","0","674","-354",
"198.302","1.07148","0.01541","-0.573868","6","709","-366",
"198.348","0.813615","-0.049788","-0.694266","6","709","-366",
"198.393","0.82393","-0.040897","-0.557091","0","745","-372",
"198.439","0.791955","-0.14956","-0.703148","0","745","-372",
"198.486","0.747602","-0.039909","-0.593605","12","786","-342",
"198.532","0.688809","-0.031018","-0.699201","12","786","-342",
"198.579","0.656833","-0.00731","-0.808744","36","798","-250",
"198.625","0.64033","-0.011261","-0.862035","36","798","-250",
"198.67","0.584631","0.04307","-0.773216","36","798","-250",
"198.716","0.515523","0.102341","-0.919274","77","780","-165",
"198.762","0.468076","0.13494","-0.789006","77","780","-165",
"198.808","0.381434","0.197175","-0.920261","137","751","-61",
"198.854","0.417535","0.117159","-0.829468","137","751","-61",
"198.9","0.284477","0.380915","-0.840324","219","692","36",
"198.946","0.309232","0.258421","-1.028817","219","692","36",
"198.992","0.227746","0.357206","-0.813678","279","621","103",
"199.038","0.22362","0.428332","-0.855127","279","621","103",
"199.084","0.154513","0.499457","-0.836376","279","621","146",
"199.13","0.162764","0.484639","-0.803809","338","514","146",
"199.176","0.120474","0.577497","-0.851179","338","514","146",
"199.222","0.158638","0.613059","-0.783085","373","437","171",
"199.268","0.070964","0.568606","-0.681437","373","437","171",
"199.314","0.057555","0.711844","-0.703148","438","343","189",
"199.36","0.036926","0.626889","-0.834402","438","343","189",
"199.407","-0.041465","0.867925","-0.502813","480","218","177",
"199.452","0.019391","0.783957","-0.487023","480","218","177",
"199.498","-0.069314","0.873852","-0.558078","604","118","152",
"199.544","-0.000206","0.783957","-0.565973","604","118","152",
"199.59","-0.047653","0.867925","-0.433731","604","118","152",
"199.635","-0.077566","0.926208","-0.41202","657","23","116",
"199.681","-0.043528","0.895584","-0.321228","657","23","116",
"199.726","-0.100258","0.969673","-0.338005","687","-18","85",
"199.772","-0.065188","0.907439","-0.274845","687","-18","85",
"199.818","-0.144611","1.02598","-0.234383","716","-119","0",
"199.863","-0.082723","0.928183","-0.275831","716","-119","0",
