timestamp(ms),Accel_x,Accel_y,Accel_z,Mag_x,Mag_y,Mag_z
0,0.086436,0.016398,0.997237,-7017.907715,3035.959961,-96081.117188
0.049,0.093657,0.002568,0.993289,19225.480469,-12181,42033.03125
0.099,0.079216,0.030228,0.968617,19225.480469,-12137.769531,41915.578125
0.149,0.078185,0.028252,0.973552,19225.480469,-11402.859375,40506.25
0.198,0.070964,0.049985,0.990329,19225.480469,-11402.859375,40506.25
0.248,0.081279,0.055912,1.003158,20014.097656,-11921.619141,42033.03125
0.298,0.057555,0.062827,1.016974,20014.097656,-11921.619141,42033.03125
0.348,0.052398,0.055912,0.970591,20233.15625,-11921.619141,42033.03125
0.397,0.026612,0.040107,0.955788,20233.15625,-11921.619141,42033.03125
0.447,0.048272,0.023313,1.028817,20496.029297,-12440.380859,42737.6875
0.496,0.031769,0.005532,1.013027,20496.029297,-12440.380859,42737.6875
0.547,0.010108,-0.02114,0.958749,21547.517578,-12699.759766,43442.359375
0.598,0.022486,-0.055715,0.967631,21503.705078,-12699.759766,43442.359375
0.649,0.045178,-0.013237,1.040659,20496.029297,-13477.900391,44851.6875
0.699,0.043115,-0.051763,1.002171,20496.029297,-13477.900391,44734.234375
0.749,0.030737,-0.107083,0.969604,22336.132812,-14472.189453,42033.03125
0.8,0.279319,-0.114986,1.020922,22292.320312,-14472.189453,42033.03125
0.85,0.035895,-0.141658,1.049541,22073.261719,-15769.089844,46378.453125
0.9,0.035895,-0.134743,0.995263,22029.449219,-15769.089844,46261.015625
0.951,0.05343,-0.195001,0.942959,20496.029297,-16806.609375,44147.015625
1.002,0.069933,-0.169317,1.013027,20452.216797,-16806.609375,44147.015625
1.053,0.050335,-0.200929,0.956775,19751.224609,-18579.039062,45673.796875
1.104,0.055493,-0.224637,0.99921,19751.224609,-18579.039062,45673.796875
1.155,0.049304,-0.252297,0.956775,20496.029297,-19097.798828,46378.453125
1.206,0.047241,-0.28292,0.938024,20496.029297,-19097.798828,46261.015625
1.257,0.023517,-0.319471,0.905457,20758.900391,-20870.228516,44147.015625
1.307,0.038989,-0.351082,0.941972,20715.089844,-20870.228516,44147.015625
1.357,0.065807,-0.354045,0.93309,20014.097656,-22685.888672,44969.125
1.408,0.034863,-0.459745,0.833416,20014.097656,-22685.888672,44969.125
1.459,0.086436,-0.342191,0.922234,20233.15625,-24458.318359,44969.125
1.51,0.042084,-0.434061,0.934077,20233.15625,-24458.318359,44969.125
1.563,0.036926,-0.432085,0.894602,20233.15625,-25236.458984,44969.125
1.615,0.036926,-0.48049,0.866969,20233.15625,-25236.458984,44851.6875
1.665,0.019391,-0.514077,0.850192,20233.15625,-27527.648438,43442.359375
1.716,0.028675,-0.545688,0.800849,20233.15625,-27527.648438,43324.90625
1.767,0.035895,-0.555567,0.817626,20758.900391,-28824.548828,42033.03125
1.818,0.033832,-0.559518,0.812691,20758.900391,-28824.548828,41915.578125
1.869,0.023517,-0.592117,0.792954,20758.900391,-30596.978516,39096.921875
1.922,0.034863,-0.626692,0.803809,20715.089844,-30596.978516,38979.484375
1.974,0.021454,-0.656327,0.703148,20233.15625,-31893.880859,37687.59375
2.024,0.016297,-0.645461,0.751505,20233.15625,-31893.880859,37570.15625
2.075,-0.004332,-0.701768,0.683411,21021.773438,-33968.921875,36982.9375
2.125,0.000825,-0.712635,0.681437,21021.773438,-33968.921875,36982.9375
2.176,0.016297,-0.765978,0.711043,21547.517578,-34963.210938,36982.9375
2.226,0.007014,-0.740294,0.615316,21547.517578,-34963.210938,36865.5
2.277,0.01836,-0.750173,0.639001,22073.261719,-36778.871094,35456.171875
2.327,0.01836,-0.79265,0.600513,22073.261719,-36778.871094,35338.71875
2.377,0.020423,-0.799565,0.55413,22073.261719,-37513.78125,31815.398438
2.428,0.015266,-0.813395,0.537353,22029.449219,-37513.78125,31697.953125
2.479,0.026612,-0.866739,0.544261,21547.517578,-39588.820312,28996.742188
2.529,0.004951,-0.88452,0.488996,21547.517578,-39588.820312,28879.296875
2.58,-0.007427,-0.830189,0.418928,21547.517578,-40366.960938,23124.546875
2.631,-0.025993,-0.893411,0.436692,21547.517578,-40366.960938,23007.101562
2.682,-0.025993,-0.933913,0.410046,21810.388672,-42658.152344,21010.554688
2.733,-0.033213,-0.924034,0.368598,21810.388672,-42658.152344,20893.109375
2.784,-0.033213,-0.89835,0.34886,23124.748047,-43955.050781,16665.125
2.834,-0.025993,-0.945767,0.335044,23080.9375,-43955.050781,16547.679688
2.885,-0.032182,-0.913168,0.296556,22336.132812,-45208.722656,13729.023438
2.936,-0.050748,-0.945767,0.336031,22292.320312,-45208.722656,13611.578125
2.987,0.01836,-0.99516,0.164315,21547.517578,-45727.480469,9383.59375
3.038,0.007014,-0.968488,0.204776,21547.517578,-45727.480469,9266.148438
3.09,-0.009489,-0.973427,0.20379,22336.132812,-46246.242188,5742.835938
3.141,-0.034244,-0.966512,0.183065,22336.132812,-46246.242188,5625.390625
3.192,-0.024961,-0.958609,0.19096,22861.876953,-46505.621094,3511.398438
3.243,-0.036307,-0.969475,0.191947,22818.064453,-46505.621094,3393.953125
3.295,-0.017741,-0.979354,0.119905,22336.132812,-48278.050781,575.296875
3.346,-0.027024,-1.002074,0.09326,22336.132812,-48234.820312,457.851562
3.396,-0.040433,-0.975403,0.076483,23387.621094,-47759.292969,-1538.695312
3.447,-0.055905,-1.010965,0.04589,23343.808594,-47759.292969,-1656.140625
3.498,-0.067251,-0.992196,-0.009375,23124.748047,-48796.8125,-7410.898438
3.549,-0.067251,-0.97639,0.021218,23124.748047,-48796.8125,-7528.335938
3.6,-0.078597,-0.717574,0.012336,24395.296875,-49574.949219,-11756.320312
3.651,-0.101289,-1.000099,-0.06464,24395.296875,-49531.722656,-11873.765625
3.702,-0.113667,-0.97639,-0.094247,24658.167969,-49315.570312,-13870.3125
3.753,-0.084786,-1.038625,-0.089312,24658.167969,-49315.570312,-13987.757812
3.804,-0.128107,-0.964536,-0.164315,25183.912109,-50353.089844,-18215.742188
3.856,-0.128107,-0.93984,-0.194908,25183.912109,-50353.089844,-18333.1875
3.908,-0.103352,-0.926998,-0.227475,25972.529297,-50612.472656,-24087.945312
3.96,-0.134296,-0.99022,-0.277805,25972.529297,-50569.242188,-24205.390625
4.011,-0.148736,-0.916132,-0.388335,26498.271484,-50353.089844,-29138.039062
4.062,-0.155957,-0.894399,-0.437679,26498.271484,-50353.089844,-29255.476562
4.113,-0.12295,-0.488393,-0.389322,26498.271484,-50828.621094,-37828.890625
4.164,-0.133265,-0.836116,-0.562025,26498.271484,-50785.390625,-37946.335938
4.215,-0.177617,-0.828213,-0.572881,27243.076172,-50353.089844,-48046.519531
4.265,-0.135327,-0.842043,-0.56992,27199.263672,-50309.859375,-48163.964844
4.315,-0.109541,-0.683987,-0.609395,26235.400391,-50093.710938,-56032.710938
4.366,-0.146674,-0.799565,-0.604461,26235.400391,-50050.480469,-56150.15625
4.417,-0.13739,-0.737331,-0.591631,27243.076172,-48796.8125,-61082.804688
4.468,-0.163177,-0.697817,-0.609395,27243.076172,-48753.582031,-61200.246094
4.519,-0.187932,-0.759064,-0.671568,27768.822266,-48537.429688,-63314.238281
4.57,-0.173491,-0.71461,-0.789993,27725.009766,-48494.199219,-63431.683594
4.621,-0.163177,-0.668181,-0.686371,27024.017578,-47759.292969,-66132.898438
4.672,-0.17968,-0.658303,-0.734728,27024.017578,-47759.292969,-66250.34375
4.722,-0.187932,-0.660279,-0.715977,28557.435547,-47759.292969,-72005.09375
4.773,-0.177617,-0.638546,-0.714991,28557.435547,-47716.0625,-72122.539062
4.825,-0.194121,-0.667194,-0.707096,28820.310547,-46505.621094,-75645.859375
4.875,-0.242599,-0.581251,-0.723872,28820.310547,-46462.390625,-75763.304688
4.926,-0.219907,-0.539761,-0.686371,29871.798828,-44949.339844,-79286.625
4.976,-0.228159,-0.562481,-0.802822,29871.798828,-44949.339844,-79404.070312
5.027,-0.260134,-0.606935,-0.735715,30397.541016,-45208.722656,-79991.289062
5.078,-0.286952,-0.59508,-0.788019,30397.541016,-45208.722656,-80108.734375
5.129,-0.270449,-0.560506,-0.713017,30879.474609,-45208.722656,-82927.390625
5.18,-0.301392,-0.610886,-0.803809,30879.474609,-45208.722656,-82927.390625
5.231,-0.30655,-0.525931,-0.729794,31930.962891,-45208.722656,-80695.953125
5.282,-0.331305,-0.51704,-0.989342,31930.962891,-45165.492188,-80813.398438
5.334,-0.365343,-0.542724,-0.788019,33990.121094,-44171.199219,-83632.054688
5.385,-0.413822,-0.507162,-0.756439,33990.121094,-44127.972656,-83749.5
5.437,-0.42001,-0.442952,-0.653804,35304.484375,-43436.292969,-84336.71875
5.488,-0.417947,-0.451842,-0.738676,35304.484375,-43436.292969,-84454.15625
5.54,-0.42001,-0.44394,-0.769269,36618.84375,-43436.292969,-87977.484375
5.591,-0.475709,-0.446903,-0.764334,36618.84375,-43393.0625,-88094.921875
5.643,-0.488087,-0.439988,-0.755452,37363.648438,-41880.011719,-89386.804688
5.695,-0.481898,-0.417268,-0.737689,37363.648438,-41880.011719,-89386.804688
5.746,-0.479835,-0.401462,-0.734728,37626.519531,-41880.011719,-89386.804688
5.797,-0.50459,-0.422207,-0.738676,37626.519531,-41836.78125,-89504.25
5.848,-0.496338,-0.410353,-0.719925,38152.261719,-41361.25,-93027.570312
5.899,-0.530376,-0.423195,-0.730781,38152.261719,-41318.019531,-93027.570312
5.95,-0.549974,-0.419243,-0.725846,38415.136719,-41101.871094,-90913.578125
6.001,-0.586075,-0.378741,-0.749531,38415.136719,-41058.640625,-90913.578125
6.051,-0.525219,-0.362936,-0.777164,40255.238281,-40626.339844,-89386.804688
6.102,-0.54688,-0.342191,-0.710056,40211.425781,-40583.109375,-89504.25
6.153,-0.53966,-0.367875,-0.762361,39729.496094,-39329.441406,-95259.007812
6.204,-0.551006,-0.355033,-0.675516,39729.496094,-39329.441406,-95259.007812
6.255,-0.53966,-0.350094,-0.692293,39729.496094,-40366.960938,-93849.679688
6.308,-0.594327,-0.29675,-0.783085,39729.496094,-40323.730469,-93967.125
6.359,-0.605673,-0.2602,-0.765321,39729.496094,-39329.441406,-94554.34375
6.411,-0.586075,-0.25526,-0.761374,39729.496094,-39286.210938,-94671.789062
6.462,-0.60361,-0.240443,-0.835389,41262.914062,-36778.871094,-98782.328125
6.513,-0.619082,-0.272054,-0.599526,41262.914062,-36735.640625,-98664.882812
6.564,-0.644868,-0.244394,-0.678476,41262.914062,-36260.109375,-98077.664062
6.615,-0.613925,-0.292799,-0.693279,41262.914062,-36260.109375,-97960.21875
6.666,-0.627334,-0.289835,-0.755452,42314.402344,-36519.492188,-95259.007812
6.717,-0.666529,-0.262175,-0.598539,42314.402344,-36519.492188,-95259.007812
6.768,-0.678907,-0.220686,-0.666634,43103.019531,-36519.492188,-94554.34375
6.819,-0.668592,-0.256248,-0.69624,43059.207031,-36476.261719,-94554.34375
6.87,-0.668592,-0.23254,-0.659726,42840.148438,-36000.730469,-93849.679688
6.92,-0.705725,-0.245382,-0.620251,42840.148438,-35957.5,-93849.679688
6.971,-0.671686,-0.227601,-0.740649,43628.761719,-35741.351562,-93849.679688
7.022,-0.661372,-0.243406,-0.698214,43584.949219,-35741.351562,-93849.679688
7.074,-0.657246,-0.234515,-0.686371,43103.019531,-36778.871094,-93849.679688
7.126,-0.647963,-0.231552,-0.684398,43103.019531,-36735.640625,-93967.125
7.177,-0.725322,-0.200929,-0.612356,43628.761719,-36000.730469,-95259.007812
7.228,-0.68819,-0.202904,-0.692293,43584.949219,-36000.730469,-95259.007812
7.28,-0.738731,-0.216734,-0.593605,42840.148438,-36519.492188,-93849.679688
7.33,-0.427231,-0.259212,-0.801836,42840.148438,-36476.261719,-93967.125
7.38,-0.687158,-0.136718,-0.639001,44154.507812,-35741.351562,-96668.335938
7.43,-0.659309,-0.183147,-0.702161,44110.695312,-35698.121094,-96668.335938
7.481,-0.68097,-0.159439,-0.740649,43365.890625,-34444.449219,-96668.335938
7.532,-0.656215,-0.117949,-0.66466,43322.078125,-34401.222656,-96785.78125
7.584,-0.73048,-0.097204,-0.710056,43103.019531,-34185.070312,-98782.328125
7.636,-0.701599,-0.069545,-0.500839,43103.019531,-34141.839844,-98782.328125
7.687,-0.712945,-0.069545,-0.740649,43628.761719,-33190.78125,-101718.429688
7.738,-0.692316,-0.044848,-0.658739,43628.761719,-33147.550781,-101718.429688
7.789,-0.684064,0.014423,-0.624198,45162.183594,-30596.978516,-103832.421875
7.841,-0.768644,0.097402,-0.700188,45162.183594,-30553.748047,-103832.421875
7.891,-0.712945,0.090487,-0.620251,45425.054688,-29343.308594,-103832.421875
7.942,-0.763486,0.184333,-0.771242,45425.054688,-29300.080078,-103714.976562
7.992,-0.724291,0.316705,-0.596566,46476.542969,-27052.119141,-103127.757812
8.043,-0.703662,0.067766,-0.559064,46476.542969,-27008.888672,-103127.757812
8.093,-0.699536,0.271263,-0.624198,48009.964844,-23939.558594,-105359.195312
8.144,-0.682001,0.362146,-0.597553,47966.152344,-23896.330078,-105241.75
8.195,-0.765549,0.319668,-0.562025,47747.089844,-21388.990234,-101718.429688
8.246,-0.715008,0.366097,-0.599526,47747.089844,-21345.759766,-101600.984375
8.296,-0.713976,0.315717,-0.564986,48009.964844,-18579.039062,-100896.320312
8.347,-0.685095,0.402647,-0.553143,48009.964844,-18535.808594,-100896.320312
8.398,-0.711913,0.471797,-0.545248,48798.578125,-17282.138672,-100896.320312
8.45,-0.704693,0.429319,-0.472219,48754.765625,-17238.910156,-100778.875
8.502,-0.725322,0.503408,-0.544261,48535.707031,-15509.708984,-99486.992188
8.553,-0.719134,0.419441,-0.52255,48535.707031,-15466.478516,-99369.546875
8.604,-0.723259,0.414502,-0.486036,49587.195312,-14472.189453,-98782.328125
8.654,-0.683033,0.550825,-0.470246,49543.382812,-14428.958984,-98782.328125
8.706,-0.767612,0.609108,-0.385375,49061.449219,-14212.808594,-99486.992188
8.757,-0.684064,0.536995,-0.440639,49017.640625,-14169.580078,-99369.546875
8.807,-0.667561,0.56663,-0.397217,48272.835938,-12181,-96668.335938
8.857,-0.711913,0.622938,-0.433731,48272.835938,-12137.769531,-96668.335938
8.908,-0.703662,0.544898,-0.378466,50901.554688,-10884.099609,-94554.34375
8.958,-0.661372,0.605157,-0.349847,50857.742188,-10840.869141,-94554.34375
9.008,-0.687158,0.632816,-0.397217,49587.195312,-9371.050781,-91618.242188
9.059,-0.658277,0.586387,-0.321228,49587.195312,-9327.820312,-91618.242188
9.11,-0.667561,0.695051,-0.324188,49587.195312,-8333.529297,-89386.804688
9.162,-0.617019,0.725674,-0.489983,49587.195312,-8290.300781,-89386.804688
9.214,-0.63146,0.738516,-0.196881,50112.9375,-6301.720215,-87977.484375
9.265,-0.587107,0.780994,-0.164315,50112.9375,-6258.489746,-87977.484375
9.317,-0.578855,0.763213,-0.188,50375.8125,-3491.77002,-84336.71875
9.367,-0.569572,0.793836,-0.085365,50332,-3448.540039,-84336.71875
9.418,-0.590201,0.704929,-0.117932,49587.195312,-1416.72998,-77759.851562
9.469,-0.595358,0.60812,-0.066614,49587.195312,-1373.5,-77759.851562
9.519,-0.537597,1.051664,-0.115958,49587.195312,-638.590088,-77055.1875
9.569,-0.443734,1.008199,-0.114971,49587.195312,-595.360107,-77055.1875
9.62,-0.477772,0.962758,0.147538,49850.066406,96.319824,-69069
9.67,-0.451986,0.852119,-0.020231,49806.253906,139.550049,-69069
9.72,-0.508716,0.861997,-0.108063,48535.707031,2171.359863,-66132.898438
9.771,-0.434451,0.900524,0.068588,48491.894531,2214.589844,-66132.898438
9.822,-0.422073,0.907439,0.260041,47790.902344,3943.790039,-62609.574219
9.872,-0.41279,0.867925,0.010362,47790.902344,3943.790039,-62727.019531
9.924,-0.406601,0.907439,0.11201,48009.964844,4462.549805,-63314.238281
9.976,-0.394224,0.919293,0.091286,47966.152344,4462.549805,-63314.238281
10.026,-0.389067,0.849155,0.042929,47265.160156,4981.310059,-60378.140625
10.077,-0.342651,0.918305,0.170236,47221.347656,4981.310059,-60378.140625
10.128,-0.362249,0.949916,0.119905,46739.414062,6018.830078,-53801.277344
10.179,-0.372563,0.849155,0.174183,46695.601562,6018.830078,-53801.277344
10.229,-0.357091,0.946952,0.146551,45162.183594,6537.589844,-52391.949219
10.28,-0.325116,0.884718,0.19096,45162.183594,6537.589844,-52391.949219
10.331,-0.295204,0.896572,0.212671,45425.054688,7013.120117,-45815.082031
10.382,-0.284889,0.877803,0.216619,45381.242188,7013.120117,-45815.082031
10.434,-0.240536,0.885706,0.331096,44373.566406,7531.879883,-42174.320312
10.485,-0.281795,0.940038,0.255107,44373.566406,7531.879883,-42174.320312
10.536,-0.241568,0.951892,0.365637,44636.4375,8828.779297,-36419.5625
10.587,-0.230222,0.870888,0.311359,44592.628906,8828.779297,-36419.5625
10.637,-0.244662,0.985479,0.327149,43891.636719,9606.919922,-31252.03125
10.688,-0.203404,0.836313,0.374519,43847.824219,9563.689453,-31252.03125
10.739,-0.169366,0.88373,0.384388,43628.761719,9088.160156,-29842.703125
10.79,-0.178649,0.799763,0.382414,43584.949219,9088.160156,-29842.703125
10.841,-0.131202,0.900524,0.474193,42314.402344,9606.919922,-27728.710938
10.892,-0.134296,0.860022,0.423863,42270.589844,9606.919922,-27728.710938
10.942,-0.114698,0.915341,0.492944,41788.660156,9866.299805,-24087.945312
10.993,-0.117793,0.891633,0.422876,41744.847656,9866.299805,-24087.945312
11.044,-0.101289,0.838289,0.447548,39992.367188,10341.830078,-20447.179688
11.095,-0.056937,0.870888,0.50676,39948.554688,10298.599609,-20447.179688
11.145,-0.058999,0.843228,0.532419,39203.75,10082.449219,-17511.078125
11.196,-0.040433,0.815569,0.509721,39159.9375,10082.449219,-17511.078125
11.247,-0.034244,0.857058,0.566959,38678.007812,10082.449219,-13870.3125
11.298,-0.063125,0.896572,0.534393,38634.195312,10082.449219,-13870.3125
11.349,-0.033213,0.797787,0.7594,37144.585938,10341.830078,-13870.3125
11.4,-0.009489,0.80569,0.58571,37144.585938,10298.599609,-13870.3125
11.451,-0.007427,0.886694,0.558078,38415.136719,10082.449219,-10229.554688
11.502,0.055493,0.803714,0.597553,38371.324219,10082.449219,-10229.554688
11.553,0.06065,0.800751,0.653804,37626.519531,10082.449219,-7293.453125
11.603,0.029706,0.780006,0.611369,37582.707031,10082.449219,-7293.453125
11.654,-0.005364,0.69999,0.49097,37144.585938,10601.209961,-3652.6875
11.704,0.05343,0.744443,0.642949,37100.773438,10557.980469,-3652.6875
11.755,0.043115,0.807666,0.618277,35304.484375,10341.830078,-3652.6875
11.806,0.081279,0.790872,0.669594,35260.671875,10298.599609,-3652.6875
11.857,0.074059,0.722711,0.656765,34778.738281,9088.160156,692.742188
11.907,0.103971,0.730613,0.663673,34734.925781,9088.160156,692.742188
11.958,0.122537,0.626889,0.636041,33771.0625,9088.160156,692.742188
12.009,0.1246,0.759261,0.705122,33727.25,9088.160156,692.742188
12.059,0.139041,0.682209,0.669594,33245.320312,9088.160156,4333.507812
12.109,0.191645,0.662452,0.746571,33245.320312,9044.929688,4333.507812
12.159,0.190614,0.799763,0.780124,33508.191406,8050.639648,6447.5
12.209,0.207117,0.577497,0.668608,33464.378906,8050.639648,6447.5
12.26,0.214337,0.604169,0.66466,31930.962891,8050.639648,8678.929688
12.311,0.331924,0.521189,0.635054,31887.150391,8007.409668,8678.929688
12.362,0.497989,0.377951,0.788019,30397.541016,7531.879883,10792.921875
12.413,0.331924,0.865949,0.791967,30353.728516,7488.649902,10792.921875
12.464,0.332955,0.647634,0.847232,28820.310547,6753.739746,16665.125
12.514,0.406189,0.422404,0.692293,28776.498047,6710.509766,16665.125
12.564,0.391748,0.431295,0.729794,25446.785156,4721.929688,20305.890625
12.615,0.416503,0.569594,0.788019,25446.785156,4678.699707,20305.890625
12.666,0.389685,0.490566,0.780124,25972.529297,4203.169922,25355.976562
12.716,0.418566,0.449076,0.777164,25928.716797,4159.939941,25238.539062
12.767,0.409283,0.536007,0.791967,25183.912109,3425.029785,23946.648438
12.818,0.419598,0.371036,0.752492,25183.912109,3381.799805,23946.648438
12.869,0.417535,0.4797,0.771242,26235.400391,2430.73999,26178.085938
12.919,0.467045,0.390793,0.815652,26191.587891,2430.73999,26178.085938
12.969,0.467045,0.431295,0.836376,25183.912109,1133.839966,28292.078125
13.019,0.433007,0.389805,0.827494,25140.101562,1133.839966,28292.078125
13.07,0.459825,0.269288,0.870917,24132.425781,-163.060059,33342.171875
13.121,0.439195,0.359182,0.731767,24132.425781,-163.060059,33342.171875
13.173,0.447447,0.294972,0.828481,24395.296875,-1157.350098,36982.9375
13.225,0.451573,0.237677,0.780124,24395.296875,-1157.350098,36865.5
13.276,0.451573,0.298923,0.848219,24921.041016,-1676.109863,36278.265625
13.327,0.505209,0.246567,0.872891,24877.228516,-1676.109863,36278.265625
13.378,0.513461,0.223847,0.813678,23869.552734,-3707.919922,42855.140625
13.429,0.520681,0.161612,0.779137,23869.552734,-3707.919922,42855.140625
13.479,0.542341,0.21298,0.810717,23869.552734,-5782.960449,44264.46875
13.53,0.562971,0.22681,0.883746,23825.740234,-5782.960449,44264.46875
13.58,0.573285,0.157661,0.673542,23124.748047,-7036.630371,44264.46875
13.631,0.632078,0.188284,0.875851,23080.9375,-7036.630371,44264.46875
13.682,0.606292,0.179393,0.701174,20496.029297,-8592.910156,45086.578125
13.732,0.64033,0.131977,0.86993,20452.216797,-8592.910156,44969.125
13.783,0.64033,0.158649,0.752492,20014.097656,-9630.429688,44264.46875
13.834,0.619701,0.146794,0.678476,19970.285156,-9630.429688,44264.46875
13.885,0.661991,0.210017,0.814665,18699.736328,-9630.429688,44264.46875
13.936,0.668179,0.186308,0.658739,18699.736328,-9630.429688,44147.015625
13.987,0.641362,0.101353,0.684398,18699.736328,-9889.810547,42855.140625
14.038,0.791955,0.276203,0.788019,18655.925781,-9846.580078,42737.6875
14.088,0.794018,0.215944,0.656765,17385.376953,-9111.669922,41328.359375
14.139,0.722847,0.161612,0.642949,17385.376953,-9111.669922,41328.359375
14.189,0.694997,0.185321,0.623211,17385.376953,-9889.810547,41328.359375
14.241,0.71769,0.210017,0.636041,17341.564453,-9846.580078,41210.921875
14.292,0.750696,0.255458,0.687358,16377.701172,-8852.289062,39214.375
14.344,0.749665,0.244592,0.535379,16333.888672,-8852.289062,39214.375
14.395,0.792986,0.170503,0.723872,16114.828125,-8852.289062,39214.375
14.447,0.738319,0.192235,0.505773,16071.017578,-8852.289062,39214.375
14.499,0.803301,0.236689,0.728807,15063.341797,-9630.429688,39214.375
14.55,0.73213,0.211005,0.402151,15063.341797,-9587.199219,39096.921875
14.601,0.834244,0.026277,0.717951,15063.341797,-8074.149902,36278.265625
14.653,0.819804,0.191248,0.413007,15019.529297,-8074.149902,36278.265625
14.704,0.86622,0.179393,0.660713,13004.177734,-9630.429688,37687.59375
14.755,0.835276,0.232737,0.468272,12960.365234,-9630.429688,34046.84375
14.806,0.929139,0.124074,0.608408,11952.689453,-10408.570312,33929.390625
14.857,0.874471,0.21792,0.397217,11908.876953,-10365.339844,30523.515625
14.908,0.893038,0.20409,0.41202,10112.583984,-9630.429688,30406.070312
14.96,0.864157,0.077645,0.535379,10068.773438,-9630.429688,24651.3125
15.01,0.892006,0.19026,0.353795,9367.78125,-11143.480469,24533.875
15.061,0.890975,0.075669,0.414981,9323.96875,-11100.25,23946.648438
15.112,0.936359,0.220883,0.423863,9104.908203,-10884.099609,23829.210938
15.163,0.933265,0.13494,0.388335,9104.908203,-10840.869141,21715.21875
15.214,0.950799,0.211005,0.419915,9367.78125,-10149.189453,21597.773438
15.265,0.906447,0.143831,0.349847,9323.96875,-10408.570312,20305.890625
15.316,0.944611,0.09839,0.471233,8053.42041,-10408.570312,20188.445312
15.368,0.929139,0.192235,0.01431,8009.60791,-10624.720703,19601.226562
15.419,0.961114,0.203102,0.343926,7527.67627,-10581.490234,19483.78125
15.471,0.909541,0.132965,0.358729,7527.67627,-10408.570312,15960.460938
15.523,1.017844,0.371036,0.511694,7527.67627,-10408.570312,15843.015625
15.575,0.940485,0.091475,0.336031,7527.67627,-11143.480469,15255.796875
15.626,0.975554,0.238664,0.329123,7483.864746,-11143.480469,15138.351562
15.677,0.966271,0.185321,0.176157,6257.128418,-11921.619141,13024.359375
15.729,1.011655,0.189272,0.327149,6213.315918,-11878.390625,12906.914062
15.78,0.962145,0.270276,0.097207,5468.512207,-11143.480469,10910.367188
15.831,0.978649,0.188284,0.267936,5468.512207,-11100.25,10792.921875
15.882,0.9869,0.261385,0.17517,5468.512207,-9630.429688,9383.59375
15.933,0.998246,0.316705,0.060693,5424.700684,-9587.199219,9266.148438
15.984,0.992058,0.221871,0.17517,4417.023926,-9371.050781,7152.164062
16.035,0.995152,0.333498,0.018257,4373.212402,-9327.820312,7034.71875
16.085,0.993089,0.288057,0.038982,3102.664551,-8333.529297,692.742188
16.135,0.938422,0.277191,-0.012336,3058.852051,-8333.529297,575.296875
16.185,0.995152,0.386842,0.259055,2094.987793,-8333.529297,-5179.460938
16.236,0.977617,0.262373,-0.058719,2051.17627,-8290.300781,-5296.90625
16.286,1.018876,0.455003,-0.248199,517.756348,-8074.149902,-13165.648438
16.336,0.950799,0.289045,-0.111023,473.944336,-8074.149902,-13283.09375
16.387,0.983806,0.349304,-0.188,254.884277,-9371.050781,-17511.078125
16.437,0.97246,0.28213,-0.082404,254.884277,-9371.050781,-17628.523438
16.488,0.944611,0.348316,-0.31728,517.756348,-9371.050781,-20447.179688
16.539,0.97246,0.371036,-0.271884,517.756348,-9327.820312,-20564.625
16.59,0.963177,0.303862,-0.174183,1569.244629,-8333.529297,-21151.84375
16.641,0.941516,0.364121,-0.387348,1525.432129,-8333.529297,-21269.289062
16.693,0.882723,0.251506,-0.211685,517.756348,-8592.910156,-25497.273438
16.745,0.952862,0.368073,-0.354781,473.944336,-8592.910156,-25614.71875
16.796,0.899226,0.274227,-0.337018,-489.919922,-9111.669922,-33483.464844
16.849,0.934296,0.30485,-0.257081,-533.731934,-9111.669922,-33600.90625
16.901,0.885817,0.372024,-0.652818,-2067.151855,-10624.720703,-37828.890625
16.952,0.893038,0.25447,-0.322215,-2067.151855,-10624.720703,-37946.335938
17.003,0.829087,0.307814,-0.604461,-1541.407715,-11921.619141,-43701.09375
17.053,0.916761,0.377951,-0.36169,-1585.219727,-11921.619141,-43818.535156
17.104,0.798143,0.247555,-0.671568,-2067.151855,-12440.380859,-53801.277344
17.155,0.847653,0.390793,-0.464324,-2067.151855,-12440.380859,-54036.164062
17.205,0.725941,0.211005,-0.516629,-2067.151855,-13953.429688,-70595.765625
17.257,0.742445,0.349304,-0.593605,-2067.151855,-13910.199219,-70713.210938
17.308,0.725941,0.279166,-0.721899,-1015.663574,-13218.519531,-79991.289062
17.359,0.778546,0.348316,-0.581763,-1015.663574,-13175.289062,-80108.734375
17.411,0.736256,0.338437,-0.770256,-752.791504,-12181,-82222.726562
17.463,0.745539,0.288057,-0.558078,-796.603516,-12181,-82340.171875
17.514,0.680557,0.233725,-0.649857,-1015.663574,-12699.759766,-83632.054688
17.565,0.735224,0.386842,-0.830455,-1015.663574,-12699.759766,-83749.5
17.616,0.691903,0.267312,-0.565973,517.756348,-12959.140625,-86568.15625
17.668,0.671274,0.317692,-0.718938,517.756348,-12915.910156,-86685.59375
17.72,0.637236,0.292996,-0.853153,2357.859863,-12440.380859,-93849.679688
17.772,0.679526,0.303862,-0.612356,2357.859863,-12440.380859,-93967.125
17.824,0.618669,0.276203,-0.817626,3102.664551,-12959.140625,-95259.007812
17.875,0.649613,0.334486,-0.767295,3102.664551,-12915.910156,-95376.453125
17.926,0.573285,0.255458,-0.714991,5468.512207,-11662.240234,-98782.328125
17.977,0.599072,0.30979,-0.82256,5468.512207,-11619.009766,-98782.328125
18.027,0.553687,0.225822,-0.756439,7527.67627,-10408.570312,-104537.085938
18.078,0.568128,0.325595,-0.864996,7527.67627,-10365.339844,-104537.085938
18.129,0.52687,0.270276,-0.929142,8316.292969,-9371.050781,-105359.195312
18.18,0.504177,0.284106,-0.698214,8316.292969,-9327.820312,-105359.195312
18.231,0.441258,0.255458,-0.768282,9893.525391,-8592.910156,-106768.515625
18.282,0.44951,0.247555,-0.832429,9893.525391,-8549.679688,-106768.515625
18.332,0.487674,0.274227,-0.953814,13267.048828,-8074.149902,-110409.28125
18.383,0.483548,0.225822,-0.785059,13223.236328,-8074.149902,-110409.28125
18.434,0.45673,0.265336,-0.821573,13004.177734,-8074.149902,-111113.945312
18.485,0.470139,0.542922,-0.909405,13004.177734,-8030.92041,-111113.945312
18.535,0.448479,0.227798,-0.864009,14011.853516,-7555.390137,-111818.609375
18.587,0.44951,0.237677,-0.873877,14011.853516,-7555.390137,-111818.609375
18.638,0.428881,0.241628,-0.890654,15326.212891,-8074.149902,-113345.382812
18.689,0.391748,0.280154,-0.914339,15326.212891,-8074.149902,-113227.9375
18.741,0.406189,0.207053,-0.88572,15851.957031,-8333.529297,-111818.609375
18.793,0.403094,0.235701,-0.886707,15851.957031,-8333.529297,-111701.171875
18.845,0.403094,0.184333,-0.908418,16114.828125,-8333.529297,-111113.945312
18.897,0.386591,0.19915,-0.879799,16114.828125,-8333.529297,-111113.945312
18.949,0.356679,0.195199,-0.817626,16859.632812,-8333.529297,-112523.273438
19,0.38556,0.195199,-1.023882,16859.632812,-8333.529297,-112523.273438
19.051,0.342238,0.175442,-0.884733,18173.992188,-9111.669922,-114050.046875
19.103,0.341207,0.146794,-0.945919,18173.992188,-9068.439453,-114050.046875
19.153,0.271068,0.155685,-0.852166,18699.736328,-8333.529297,-115459.375
19.204,0.353584,0.187296,-0.904471,18699.736328,-8290.300781,-115341.929688
19.255,0.310263,0.081596,-0.954801,19488.353516,-8074.149902,-114050.046875
19.305,0.304074,0.122098,-0.950854,19488.353516,-8074.149902,-114050.046875
19.356,0.267973,0.103329,-0.923221,20496.029297,-8852.289062,-114050.046875
19.407,0.274162,0.138892,-0.943946,20496.029297,-8852.289062,-113932.601562
19.458,0.218463,-0.20488,-0.978486,21284.644531,-9889.810547,-113345.382812
19.51,0.290665,0.093451,-0.904471,21284.644531,-9846.580078,-113227.9375
19.561,0.225683,0.069742,-0.982434,22073.261719,-9630.429688,-112523.273438
19.612,0.26591,0.145807,-0.945919,22073.261719,-9587.199219,-112523.273438
19.664,0.188551,0.102341,-0.96467,22336.132812,-9371.050781,-114050.046875
19.715,0.211243,0.096414,-0.986381,22336.132812,-9327.820312,-113932.601562
19.766,0.190614,0.071718,-0.891641,22599.005859,-8852.289062,-111818.609375
19.818,0.242187,0.132965,-1.050528,22599.005859,-8852.289062,-111818.609375
19.871,0.149355,0.082584,-0.875851,23869.552734,-9371.050781,-113345.382812
19.923,0.190614,0.10728,-0.99625,23825.740234,-9371.050781,-113227.9375
19.974,0.183394,0.109256,-0.982434,22861.876953,-9371.050781,-111113.945312
20.025,0.182362,0.092463,-0.927169,22861.876953,-9327.820312,-110996.5
20.075,0.189582,0.099378,-0.977499,23650.492188,-8592.910156,-110409.28125
20.126,0.17411,0.114195,-1.004145,23606.681641,-8549.679688,-110409.28125
20.178,0.141104,0.114195,-0.923221,23124.748047,-7814.77002,-111113.945312
20.229,0.169985,0.140867,-0.969604,23124.748047,-7814.77002,-110996.5
20.281,0.151418,-0.209819,-1.000197,23124.748047,-8074.149902,-110409.28125
20.332,0.172047,0.087523,-0.920261,23124.748047,-8030.92041,-110291.84375
20.383,0.140072,0.119135,-0.973552,23124.748047,-7296.010254,-108999.953125
20.435,0.150387,0.10728,-0.959736,23080.9375,-7296.010254,-108999.953125
20.487,0.148324,0.074681,-0.988355,22861.876953,-7814.77002,-108999.953125
20.539,0.16689,0.117159,-0.997237,22861.876953,-7814.77002,-108882.515625
20.591,0.153481,0.074681,-0.98342,22861.876953,-8592.910156,-108177.84375
20.642,0.167922,0.092463,-0.906444,22818.064453,-8592.910156,-108177.84375
20.694,0.160701,0.08456,-0.949867,22599.005859,-8592.910156,-110409.28125
20.745,0.177205,0.009483,-1.01204,22555.193359,-8592.910156,-110291.84375
20.796,0.19474,0.018374,-0.96467,21284.644531,-9630.429688,-107473.1875
20.848,0.164827,0.29102,-0.974539,21284.644531,-9630.429688,-107473.1875
20.899,0.17411,0.000593,-1.004145,21547.517578,-11143.480469,-109704.617188
20.95,0.157607,0.02924,-0.940985,21503.705078,-11143.480469,-109704.617188
21.001,0.228778,0.018374,-0.998224,20014.097656,-11921.619141,-111113.945312
21.052,0.148324,0.008496,-1.010066,20014.097656,-11878.390625,-110996.5
21.104,0.278288,0.000593,-0.907431,20014.097656,-11662.240234,-109704.617188
21.155,0.155544,-0.008298,-1.100859,19970.285156,-11662.240234,-109587.171875
21.207,0.197834,-0.00731,-0.748544,18962.609375,-11921.619141,-108999.953125
21.259,0.186488,-0.05769,-0.903484,18962.609375,-11921.619141,-110409.28125
21.31,0.177205,0.064803,-0.98342,18962.609375,-12699.759766,-110291.84375
21.362,0.197834,-0.077447,-0.872891,18918.796875,-13218.519531,-109704.617188
21.414,0.154513,0.022325,-1.032764,18130.181641,-13218.519531,-109587.171875
21.466,0.204023,-0.013237,-0.861048,16903.445312,-14472.189453,-108177.84375
21.518,0.156576,-0.059666,-0.990329,16859.632812,-14472.189453,-108060.40625
21.57,0.20196,0.005532,-0.987368,16114.828125,-14472.189453,-107473.1875
21.622,0.147292,-0.080411,-0.970591,16114.828125,-14472.189453,-107473.1875
21.674,0.233935,0.013435,-0.981447,16114.828125,-16028.46875,-108999.953125
21.724,0.190614,-0.058678,-0.900523,16071.017578,-16028.46875,-108999.953125
21.776,0.192677,-0.107083,-1.003158,15326.212891,-18319.660156,-108999.953125
21.828,0.204023,-0.097204,-0.949867,15326.212891,-18276.429688,-108882.515625
21.88,0.243218,-0.07646,-0.982434,15589.083984,-17800.898438,-106768.515625
21.933,0.263847,-0.121901,-0.947893,15545.273438,-17800.898438,-106768.515625
21.985,0.539247,-0.136718,-1.097898,14274.724609,-20135.320312,-106768.515625
22.037,0.250438,-0.20488,-0.825521,14230.912109,-20135.320312,-106651.078125
22.09,0.316452,-0.125852,-0.967631,13486.109375,-20870.228516,-105359.195312
22.141,0.306137,-0.153512,-0.874864,13442.296875,-20870.228516,-105359.195312
22.192,0.276225,-0.220686,-0.976512,13004.177734,-21648.369141,-105359.195312
22.243,0.327798,-0.170305,-0.868943,12960.365234,-21648.369141,-105241.75
22.295,0.346364,-0.230564,-0.748544,12215.560547,-22945.269531,-103127.757812
22.346,0.375245,-0.28292,-0.77519,12171.748047,-22945.269531,-103010.3125
22.398,0.395874,-0.291811,-0.941972,11426.945312,-24458.318359,-99486.992188
22.45,0.43507,-0.320458,-0.846245,11383.132812,-24458.318359,-99369.546875
22.502,0.43507,-0.284896,-0.878812,10638.328125,-26533.359375,-98077.664062
22.553,0.433007,-0.40245,-0.840324,10594.517578,-26533.359375,-97960.21875
22.604,0.488706,-0.345155,-0.756439,8053.42041,-27787.029297,-94554.34375
22.657,0.503146,-0.381705,-0.774203,8053.42041,-27787.029297,-94554.34375
22.709,0.562971,-0.290823,-0.572881,8053.42041,-28046.410156,-87977.484375
22.76,0.620732,-0.307616,-0.805783,8009.60791,-28046.410156,-87977.484375
22.811,0.578443,-0.760051,-0.98342,7527.67627,-28046.410156,-87272.8125
22.862,0.678494,0.03418,-0.450508,7483.864746,-28046.410156,-87272.8125
22.913,0.651676,-0.389608,-0.768282,4679.895996,-28824.548828,-77055.1875
22.964,0.613512,-0.488393,-0.655778,4636.084473,-28824.548828,-77172.632812
23.014,0.671274,-0.35207,-0.55413,4417.023926,-28824.548828,-78581.960938
23.065,0.664054,-0.420231,-0.652818,4417.023926,-28781.318359,-78581.960938
23.117,0.694997,-0.454806,-0.542288,4417.023926,-28565.169922,-76350.523438
23.169,0.705312,-0.447891,-0.621238,4373.212402,-28565.169922,-76350.523438
23.222,0.738319,-0.421219,-0.242278,3365.536621,-29602.689453,-69773.65625
23.274,0.699123,-0.534822,-0.545248,3321.724121,-29602.689453,-69773.65625
23.326,0.749665,-0.488393,-0.425836,2620.731934,-30856.357422,-64723.570312
23.378,0.764105,-0.527907,-0.37748,2576.92041,-30856.357422,-64723.570312
23.428,0.830119,-0.583226,-0.441626,1832.116699,-32931.402344,-58146.703125
23.479,0.798143,-0.569396,-0.337018,1832.116699,-32931.402344,-58146.703125
23.529,0.789892,-0.564457,0.008388,2094.987793,-33709.542969,-49455.847656
23.58,0.792986,-0.615825,-0.197868,2094.987793,-33709.542969,-49455.847656
23.631,0.785766,-0.529882,-0.050824,2357.859863,-33709.542969,-41469.65625
23.682,0.827024,-0.70572,-0.141616,2314.04834,-33709.542969,-41469.65625
23.734,0.806395,-0.581251,-0.025165,1306.372559,-34444.449219,-33483.464844
23.786,0.813615,-0.677072,0.01727,1306.372559,-34444.449219,-33366.019531
23.837,0.802269,-0.625704,0.066614,1832.116699,-34703.832031,-20329.734375
23.89,0.801238,-0.607923,0.120892,1832.116699,-34703.832031,-20329.734375
23.942,0.768231,-0.615825,0.122866,3365.536621,-35222.589844,-15279.640625
23.993,0.787829,-0.60002,0.296556,3321.724121,-35179.359375,-15279.640625
24.044,0.775451,-0.587178,0.012336,3102.664551,-34444.449219,-7293.453125
24.094,0.802269,-0.578287,0.342939,3102.664551,-34401.222656,-7293.453125
24.145,0.797112,-0.526919,0.195895,4154.151855,-34228.300781,-1421.25
24.196,0.743476,-0.589153,0.428797,4154.151855,-34185.070312,-1421.25
24.248,0.68262,-0.5447,0.343926,4679.895996,-32931.402344,9501.039062
24.299,0.750696,-0.500247,0.533406,4679.895996,-32888.171875,9501.039062
24.35,0.711501,-0.484441,0.575841,5468.512207,-31634.498047,14551.132812
24.402,0.72491,-0.489381,0.548209,5468.512207,-31591.267578,14551.132812
24.454,0.65477,-0.427146,0.52255,5994.256348,-31115.740234,15960.460938
24.507,0.677463,-0.478514,0.605448,5994.256348,-31072.509766,15960.460938
24.558,0.657865,-0.415292,0.529458,6739.060059,-29862.068359,22067.546875
24.609,0.638267,-0.506174,0.818612,6739.060059,-29818.837891,51546
24.66,0.628984,-0.385656,0.671568,8316.292969,-27311.5,26178.085938
24.711,0.618669,-0.483454,0.682424,8316.292969,-27311.5,26178.085938
24.761,0.624858,-0.289835,0.719925,8842.037109,-28046.410156,28409.523438
24.812,0.585663,-0.286871,0.651831,8842.037109,-28003.179688,28409.523438
24.863,0.552656,-0.336264,0.780124,9367.78125,-25755.21875,32050.289062
24.914,0.54131,-0.258224,0.744597,9367.78125,-25711.990234,32050.289062
24.965,0.543373,-0.223649,0.824534,10901.201172,-23464.029297,34868.9375
25.016,0.545436,-0.331325,0.68045,10901.201172,-23420.798828,37100.375
25.067,0.609386,-0.317495,0.997237,11952.689453,-21648.369141,37100.375
25.117,0.504177,-0.226613,0.663673,11908.876953,-21648.369141,38509.703125
25.168,0.495926,-0.251309,0.969604,11689.816406,-21648.369141,38509.703125
25.219,0.461888,-0.198953,0.891641,11689.816406,-21605.138672,40741.140625
25.27,0.440227,-0.231552,0.751505,12741.304688,-20135.320312,40741.140625
25.321,0.411346,-0.093253,0.771242,12741.304688,-20092.089844,41445.8125
25.373,0.46395,-0.211795,0.930129,13004.177734,-19573.330078,41445.8125
25.424,0.375245,-0.117949,0.950854,13004.177734,-18838.419922,42855.140625
25.475,0.410315,-0.193026,0.779137,14800.46875,-18795.189453,42855.140625
25.526,0.421661,-0.285884,0.967631,14800.46875,-17541.519531,44381.90625
25.577,0.287571,-0.064605,1.026843,15851.957031,-17541.519531,44381.90625
25.628,0.296854,-0.194014,0.789993,15851.957031,-18319.660156,46495.90625
25.679,0.322641,-0.292799,1.010066,16640.572266,-18276.429688,46378.453125
25.73,0.25869,-0.07152,0.949867,18962.609375,-17282.138672,45791.234375
25.781,0.279319,-0.065593,0.884733,18962.609375,-17238.910156,45791.234375
25.833,0.254564,0.097402,1.028817,20014.097656,-15250.330078,48022.671875
25.884,0.242187,-0.078435,0.926182,20014.097656,-15207.099609,47905.234375
25.935,0.232904,-0.052751,0.991315,22861.876953,-12181,45791.234375
25.986,0.185456,0.125062,0.992302,22861.876953,-12137.769531,45791.234375
26.038,0.172047,0.031216,0.991315,22861.876953,-10149.189453,47200.5625
26.089,0.193708,0.117159,1.085069,22861.876953,-10105.958984,47083.125
26.14,0.183394,0.000593,0.814665,23650.492188,-8333.529297,45086.578125
26.191,0.129758,0.185321,1.274549,23650.492188,-8290.300781,44969.125
26.242,0.178236,0.108268,0.872891,24132.425781,-7555.390137,43677.25
26.292,0.131821,0.218907,0.975525,24132.425781,-7512.159668,43677.25
26.342,0.164827,0.069742,1.091977,25446.785156,-6561.100098,43677.25
26.393,0.144198,0.081596,1.274549,25446.785156,-6517.869629,43677.25
26.444,0.143167,0.077645,0.954801,25709.658203,-6042.340332,45086.578125
26.495,0.126663,0.113208,0.946906,25709.658203,-5999.109863,44969.125
26.546,0.108097,0.222859,0.931116,26235.400391,-5264.199707,42150.46875
26.597,0.153481,0.181369,1.070265,26235.400391,-5220.970215,42150.46875
26.649,0.094688,0.189272,0.9173,27243.076172,-3707.919922,42150.46875
26.701,0.043115,0.203102,0.872891,27199.263672,-3664.689941,42033.03125
26.751,0.07509,0.246567,1.060397,27024.017578,-3491.77002,41445.8125
26.802,0.070964,0.267312,0.974539,27024.017578,-3448.540039,41328.359375
26.853,0.080248,0.310777,0.953814,27768.822266,-1935.490234,38509.703125
26.903,0.089531,0.323619,0.946906,27725.009766,-1892.260254,38392.265625
26.954,0.005982,0.370048,0.849206,27505.947266,-163.060059,37805.046875
27.005,0.029706,0.457967,0.857101,27505.947266,-119.830078,37687.59375
27.056,-0.000206,0.429319,0.944932,27768.822266,1652.599976,31228.179688
27.107,0.047241,0.451052,0.935064,27768.822266,1695.829956,31110.734375
27.158,0.047241,0.412526,0.667621,28294.564453,3943.790039,25473.421875
27.209,-0.006395,0.583424,0.783085,28294.564453,3943.790039,25355.976562
27.26,0.034863,0.546873,0.926182,29083.181641,5240.689941,23241.984375
27.312,0.275193,0.606144,0.942959,29039.369141,5240.689941,23124.546875
27.364,0.041052,0.576509,0.82256,28557.435547,5500.069824,19601.226562
27.415,0.02558,0.592315,0.729794,28557.435547,5500.069824,19483.78125
27.466,0.016297,0.627877,0.748544,29608.923828,6278.209961,16782.570312
27.516,0.000825,0.625901,0.767295,29565.111328,6278.209961,16665.125
27.566,0.001857,0.683197,0.770256,28820.310547,8050.639648,11615.03125
27.617,-0.000206,0.668379,0.676503,28820.310547,8050.639648,11497.585938
27.667,-0.035276,0.790872,0.687358,29083.181641,8828.779297,6564.9375
27.718,0.00392,0.721723,0.698214,29083.181641,8828.779297,6447.5
27.769,-0.028056,0.829398,0.592618,29608.923828,9606.919922,-1421.25
27.82,-0.018773,0.795812,0.610382,29608.923828,9606.919922,-1538.695312
27.87,-0.043528,0.815569,0.544261,29871.798828,10341.830078,-7998.117188
27.921,-0.032182,0.841253,0.529458,29871.798828,10341.830078,-8115.5625
27.972,-0.068283,0.843228,0.489983,30134.669922,11638.730469,-14574.976562
28.025,-0.076534,0.908426,0.482088,30090.857422,11638.730469,-14692.421875
28.077,-0.08066,0.974612,0.422876,29608.923828,11898.109375,-22561.171875
28.128,-0.069314,0.740492,0.304451,29565.111328,11898.109375,-22678.617188
28.18,-0.098195,0.958807,0.434718,29346.052734,11898.109375,-23970.5
28.231,-0.110572,0.964734,0.360703,29346.052734,11898.109375,-24087.945312
28.282,-0.100258,0.880767,0.354781,30879.474609,12416.869141,-31956.691406
28.332,-0.106447,0.945965,0.232409,30835.662109,12373.640625,-32074.136719
28.383,-0.102321,0.895584,0.216619,30397.541016,11638.730469,-36302.121094
28.434,-0.132233,0.986466,0.246225,30397.541016,11638.730469,-36419.5625
28.485,-0.136359,0.916329,0.141616,30660.412109,12935.628906,-41469.65625
28.536,-0.144611,0.802726,0.168262,30616.599609,12892.400391,-41587.101562
28.587,-0.135327,0.981527,0.178131,29608.923828,11638.730469,-43583.648438
28.638,-0.121919,0.974612,0.181091,29608.923828,11638.730469,-43701.09375
28.689,-0.141516,0.938062,0.084378,29871.798828,12676.25,-48751.183594
28.741,-0.12295,0.94794,0.09326,29871.798828,12633.019531,-48868.628906
28.794,-0.146674,1.084264,0.037995,30134.669922,11379.349609,-52391.949219
28.846,-0.156988,0.957819,0.087338,30090.857422,11336.119141,-52509.390625
28.898,-0.17246,1.000296,0.065627,29083.181641,10860.589844,-56032.710938
28.949,-0.164208,0.886694,0.049837,29083.181641,10817.359375,-56150.15625
29.001,-0.198247,1.020053,-0.012336,29871.798828,10601.209961,-59673.476562
29.052,-0.139453,0.930159,-0.194908,29871.798828,10557.980469,-59790.921875
29.103,-0.162145,0.866937,-0.162341,29871.798828,10082.449219,-65428.234375
29.153,-0.196184,1.022029,-0.087338,29871.798828,10039.219727,-65545.671875
29.204,-0.236411,0.886694,-0.196881,29871.798828,9347.540039,-69773.65625
29.255,-0.238473,0.971649,-0.197868,29827.986328,9304.310547,-69891.101562
29.306,-0.205467,0.948928,-0.192934,29608.923828,8828.779297,-71300.429688
29.356,-0.224033,0.920281,-0.226488,29608.923828,8785.549805,-71417.875
29.408,-0.259103,0.890645,-0.310372,30879.474609,8050.639648,-77759.851562
29.459,-0.282826,0.923244,-0.318267,30879.474609,8007.409668,-77877.296875
29.511,-0.280763,0.873852,-0.320241,31142.345703,7013.120117,-79991.289062
29.562,-0.265291,0.875827,-0.346886,31142.345703,6969.889648,-80108.734375
29.613,-0.285921,0.834338,-0.354781,31142.345703,6018.830078,-82927.390625
29.664,-0.268386,0.841253,-0.37748,31142.345703,5975.599609,-83044.828125
29.714,-0.300361,0.81952,-0.432745,31405.216797,5240.689941,-86568.15625
29.765,-0.287984,0.806678,-0.458403,31405.216797,5197.459961,-86685.59375
29.816,-0.298298,0.76914,-0.52255,31405.216797,3684.409912,-92322.90625
29.867,-0.281795,0.762225,-0.572881,31405.216797,3641.179932,-92440.351562
29.918,-0.302424,0.700978,-0.624198,31405.216797,2690.119873,-97373
29.968,-0.284889,0.696039,-0.674529,31361.404297,2690.119873,-97373
30.019,-0.303455,0.694063,-0.676503,31142.345703,96.319824,-101718.429688
30.07,-0.301392,0.648622,-0.673542,31098.533203,96.319824,-101718.429688
30.121,-0.308613,0.618986,-0.704135,30923.283203,-2973.010254,-108177.84375
30.172,-0.367406,0.797787,-0.812691,30923.283203,-2973.010254,-108177.84375
30.223,-0.326147,0.460931,-0.730781,31405.216797,-3967.299805,-108999.953125
30.274,-0.349871,0.475748,-0.707096,31405.216797,-4010.529785,-108999.953125
30.325,-0.367406,0.467845,-0.779137,31930.962891,-8592.910156,-114050.046875
30.376,-0.331305,0.423392,-0.845258,31930.962891,-8592.910156,-114050.046875
30.426,-0.36328,0.381903,-0.804796,32982.445312,-10624.720703,-114050.046875
30.476,-0.49737,0.260397,-0.860061,32982.445312,-10624.720703,-114050.046875
30.527,-0.544817,0.243604,-0.908418,34033.933594,-12959.140625,-117690.8125
30.578,-0.415884,0.232737,-0.657752,34033.933594,-13002.369141,-117573.367188
30.629,-0.252914,0.205078,-0.734728,36355.972656,-17541.519531,-115459.375
30.68,-0.569572,0.21792,-0.769269,36355.972656,-17541.519531,-115459.375
30.731,-0.634554,0.208041,-0.820586,37670.332031,-19097.798828,-116281.484375
30.782,-0.573698,0.207053,-0.736702,37670.332031,-19097.798828,-116164.039062
30.833,-0.558226,0.095426,-0.672555,40255.238281,-19357.179688,-115459.375
30.884,-0.648994,0.124074,-0.780124,40255.238281,-19357.179688,-115341.929688
30.935,-0.575761,0.173466,-0.715977,40780.984375,-20654.080078,-113345.382812
30.987,-0.667561,0.150746,-0.783085,40780.984375,-20654.080078,-113345.382812
31.039,-0.627334,0.102341,-0.713017,42051.53125,-21388.990234,-115459.375
31.091,-0.691284,-0.001383,-0.700188,42051.53125,-21388.990234,-115341.929688
31.144,-0.662403,0.13494,-0.740649,42051.53125,-23204.648438,-113345.382812
31.197,-0.647963,0.058876,-0.710056,42051.53125,-23204.648438,-113227.9375
31.249,-0.642806,0.025289,-0.706109,43103.019531,-23982.789062,-112640.71875
31.3,-0.674781,0.010471,-0.718938,43059.207031,-23982.789062,-112523.273438
31.351,-0.667561,-0.051763,-0.701174,42840.148438,-26792.740234,-108999.953125
31.402,-0.717071,-0.047812,-0.726833,42840.148438,-26792.740234,-108882.515625
31.453,-0.662403,-0.022128,-0.698214,43103.019531,-26792.740234,-108177.84375
31.505,-0.711913,-0.045836,-0.994276,43103.019531,-26792.740234,-108060.40625
31.556,-0.647963,-0.06263,-0.724859,43628.761719,-29083.929688,-107473.1875
31.607,-0.701599,-0.122888,-0.657752,43584.949219,-29083.929688,-107355.742188
31.66,-0.632491,-0.133755,-0.650844,42840.148438,-31375.119141,-106063.859375
31.713,-0.727385,-0.144621,-0.757426,42840.148438,-31375.119141,-106063.859375
31.765,-0.677875,-0.223649,-0.626172,44417.378906,-31634.498047,-106063.859375
31.817,-0.722228,-0.239455,-0.684398,44373.566406,-31634.498047,-105946.414062
31.868,-0.706756,-0.244394,-0.614329,43628.761719,-33709.542969,-101718.429688
31.919,-0.740794,-0.303665,-0.609395,43628.761719,-33709.542969,-101600.984375
31.97,-0.707788,-0.244394,-0.668608,44680.25,-36000.730469,-98782.328125
32.021,-0.677875,-0.297738,-0.63308,44636.4375,-36000.730469,-98664.882812
32.072,-0.716039,-0.294774,-0.676503,43365.890625,-36519.492188,-98077.664062
32.123,-0.685095,-0.325398,-0.583736,43365.890625,-36519.492188,-97960.21875
32.174,-0.735637,-0.33824,-0.631106,44154.507812,-38032.542969,-96668.335938
32.225,-0.661372,-0.376766,-0.243265,44110.695312,-38032.542969,-96668.335938
32.277,-0.710882,-0.423195,-0.503799,43365.890625,-39070.0625,-93027.570312
32.328,-0.66034,-0.411341,-0.446561,43365.890625,-39070.0625,-93027.570312
32.381,-0.7377,-0.487405,-0.528471,45162.183594,-39070.0625,-88682.140625
32.434,-0.773801,-0.486417,-0.474193,45118.371094,-41620.632812,-85041.382812
32.487,-0.774832,-0.565445,-0.495904,44417.378906,-41620.632812,-85041.382812
32.539,-0.756266,-0.484441,-0.535379,44417.378906,-42658.152344,-79286.625
32.59,-0.719134,-0.509138,-0.37748,44417.378906,-42658.152344,-79286.625
32.641,-0.729448,-0.507162,-0.342939,45162.183594,-44214.429688,-75645.859375
32.692,-0.738731,-0.596068,-0.327149,45162.183594,-44214.429688,-75645.859375
32.744,-0.745952,-0.578287,-0.257081,45425.054688,-45468.101562,-69773.65625
32.795,-0.727385,-0.574336,-0.265963,45425.054688,-45468.101562,-69773.65625
32.846,-0.799587,-0.653364,-0.240304,46476.542969,-46246.242188,-66132.898438
32.897,-1.035792,-0.629655,-0.161354,46476.542969,-46246.242188,-66132.898438
32.95,-0.781021,-0.703744,-0.126813,46476.542969,-47024.382812,-59556.03125
33.002,-0.735637,-0.625704,-0.139643,46432.730469,-47024.382812,-59556.03125
33.054,-0.733574,-0.748197,-0.040955,45425.054688,-48278.050781,-54505.941406
33.105,-0.646931,-0.71955,0.008388,45381.242188,-48278.050781,-54505.941406
33.157,-0.677875,-0.72844,0.015297,45162.183594,-48796.8125,-50865.175781
33.209,-0.755235,-0.688926,-0.081417,45162.183594,-48753.582031,-50865.175781
33.262,-0.630428,-0.812407,0.04589,45162.183594,-48537.429688,-43583.648438
33.314,-0.682001,-0.734367,0.005428,45118.371094,-48537.429688,-43583.648438
33.365,-0.637648,-0.722513,0.08043,44154.507812,-50093.710938,-43583.648438
33.417,-0.635585,-0.765978,0.150498,44110.695312,-50050.480469,-43583.648438
33.468,-0.613925,-0.789687,0.210698,43891.636719,-49834.332031,-36302.121094
33.518,-0.652089,-0.766966,0.189973,43847.824219,-49834.332031,-36302.121094
33.569,-0.701599,-0.751161,0.128787,43365.890625,-49834.332031,-32661.355469
33.62,-0.668592,-0.821298,0.083391,43322.078125,-49834.332031,-32778.800781
33.671,-0.621145,-0.763015,0.182078,42577.273438,-51131.230469,-35597.457031
33.722,-0.604642,-0.814383,0.227475,42577.273438,-51131.230469,-35597.457031
33.773,-0.627334,-0.750173,0.246225,42840.148438,-51390.609375,-29842.703125
33.823,-0.606704,-0.759064,0.322215,42840.148438,-51347.382812,-29842.703125
33.874,-0.68097,-0.740294,0.28274,42840.148438,-49574.949219,-26201.9375
33.925,-0.641774,-0.759064,0.338991,42840.148438,-49574.949219,-26201.9375
33.976,-0.567509,-0.71461,0.328136,43103.019531,-49574.949219,-22561.171875
34.027,-0.533471,-0.69189,0.405112,43059.207031,-49574.949219,-22561.171875
34.078,-0.617019,-0.772893,0.423863,42840.148438,-49834.332031,-14457.539062
34.129,-0.560289,-0.625704,0.414981,42796.335938,-49834.332031,-14457.539062
34.18,-0.508716,-0.79265,0.536366,39992.367188,-50093.710938,-9407.445312
34.232,-0.367406,-0.710659,0.556104,39992.367188,-50050.480469,-9407.445312
34.284,-0.517999,-0.679048,0.340965,39992.367188,-49834.332031,-9407.445312
34.337,-0.448891,-0.725477,0.415968,39992.367188,-49834.332031,-9524.890625
34.39,-0.375658,-0.980342,0.415968,41043.855469,-50612.472656,-10112.109375
34.442,-0.231253,-0.694853,0.666634,41000.042969,-50569.242188,-10112.109375
34.493,-0.2787,-0.955646,1.165992,38152.261719,-49574.949219,-5062.015625
34.545,-0.399381,-0.695841,0.575841,38108.449219,-49531.722656,-4944.570312
34.596,-0.318927,-0.570384,0.655778,37144.585938,-48796.8125,7269.601562
34.648,-0.316864,-0.731404,0.751505,37144.585938,-48753.582031,7152.164062
34.7,-0.338525,-0.699793,0.631106,37407.460938,-48537.429688,5860.273438
34.752,-0.279732,-0.661266,0.670581,37363.648438,-48537.429688,5742.835938
34.803,-0.30655,-0.665218,0.711043,37144.585938,-49056.191406,2219.515625
34.854,-0.339556,-0.666206,0.667621,37144.585938,-49012.960938,2219.515625
34.907,-0.334399,-0.722513,0.667621,37144.585938,-48796.8125,4450.945312
34.958,-0.333368,-0.682999,0.691306,37100.773438,-48753.582031,4450.945312
35.009,-0.312739,-0.641509,0.692293,36618.84375,-47802.519531,5860.273438
35.06,-0.326147,-0.647437,0.72782,36618.84375,-47802.519531,5860.273438
35.111,-0.332336,-0.647437,0.608408,36618.84375,-48278.050781,7269.601562
35.162,-0.298298,-0.644473,0.656765,36618.84375,-48234.820312,7152.164062
35.212,-0.227127,-0.721525,0.72782,36881.714844,-48061.902344,5860.273438
35.263,-0.25704,-0.632619,0.697227,36837.902344,-48061.902344,5860.273438
35.314,-0.311707,-0.589153,0.629133,36093.097656,-48537.429688,5860.273438
35.365,-0.248788,-0.609898,0.639988,36049.285156,-48494.199219,5860.273438
35.416,-0.151831,-0.704732,0.777164,35567.355469,-48278.050781,5860.273438
35.467,-0.296235,-0.638546,0.825521,35567.355469,-48234.820312,5860.273438
35.518,-0.297267,-0.497283,0.765321,35830.226562,-47283.761719,11615.03125
35.57,-0.266323,-0.561494,0.800849,35830.226562,-47240.53125,11615.03125
35.622,-0.269417,-0.566433,0.807757,35830.226562,-46505.621094,13846.46875
35.674,-0.244662,-0.490368,0.737689,35830.226562,-46462.390625,13846.46875
35.725,-0.167303,-0.553591,0.929142,36355.972656,-44949.339844,17487.234375
35.777,-0.194121,-0.523955,0.992302,36355.972656,-44906.109375,17487.234375
35.828,-0.188963,-0.516053,0.856114,36355.972656,-44473.8125,18896.5625
35.879,-0.15802,-0.446903,0.956775,36312.160156,-44430.582031,18896.5625
35.93,-0.189995,-0.337252,0.740649,35567.355469,-43695.671875,21128
35.981,-0.144611,-0.440976,0.667621,35523.542969,-43652.441406,21128
36.031,-0.120887,-0.292799,0.977499,34515.867188,-43176.910156,25473.421875
36.082,0.0328,-0.293786,1.255798,34515.867188,-43133.679688,25473.421875
36.133,-0.127076,-0.505186,0.972565,35041.609375,-42398.769531,29818.851562
36.183,0.014234,-0.237479,0.770256,34997.800781,-42355.542969,29818.851562
36.235,-0.004332,-0.233528,0.905457,33771.0625,-39588.820312,34986.390625
36.286,-0.032182,-0.152524,0.872891,33771.0625,-39545.589844,34986.390625
36.337,0.091594,-0.316507,1.039672,34033.933594,-37297.632812,38627.15625
36.39,0.005982,-0.234515,0.896576,33990.121094,-37254.402344,38627.15625
36.442,0.1246,-0.228588,1.095924,32982.445312,-36778.871094,41445.8125
36.494,0.289634,-0.288847,0.934077,32938.636719,-36735.640625,41445.8125
36.546,0.211243,-0.253285,0.833416,30923.283203,-36260.109375,45204.015625
36.597,0.353584,-0.350094,1.042633,30879.474609,-36216.882812,45908.6875
36.648,0.310263,-0.268102,0.956775,26761.146484,-35222.589844,45791.234375
36.699,0.433007,-0.317495,0.955788,26717.333984,-35179.359375,44381.90625
36.749,0.346364,-0.229576,0.728807,23124.748047,-33709.542969,44381.90625
36.8,0.469108,-0.358985,0.816639,23080.9375,-33709.542969,44381.90625
36.851,0.376276,-0.363924,1.014014,20276.96875,-35481.972656,44264.46875
36.902,0.509335,-0.23254,0.900523,20233.15625,-35438.742188,43677.25
36.953,0.559876,-0.366887,0.755452,17122.503906,-35222.589844,43559.796875
37.004,0.63311,-0.5447,0.687358,17078.693359,-35179.359375,42267.921875
37.054,0.644456,-0.203892,0.739662,14274.724609,-34703.832031,42150.46875
37.105,0.644456,-0.257236,0.665647,14230.912109,-34703.832031,40036.484375
37.156,0.650645,-0.378741,0.699201,11689.816406,-34703.832031,39919.03125
37.207,0.681588,-0.31058,0.652818,11646.003906,-34660.601562,34986.390625
37.257,0.703249,-0.26909,0.639001,10156.396484,-33450.160156,34868.9375
37.308,0.734193,-0.274029,0.602487,10112.583984,-33406.929688,33459.617188
37.359,0.730067,-0.257236,0.68045,8579.164062,-32153.259766,33342.171875
37.41,0.745539,-0.243406,0.576828,8535.351562,-32110.029297,32050.289062
37.461,0.754822,-0.178208,0.600513,7001.932129,-31893.880859,31932.84375
37.511,0.863125,-0.257236,0.618277,6958.120605,-31850.650391,30640.960938
37.562,0.78164,-0.457769,0.513668,5994.256348,-31029.279297,30523.515625
37.613,0.806395,-0.215746,0.603474,5950.443848,-20178.548828,27704.859375
37.664,0.849716,-0.170305,0.502813,4679.895996,-29083.929688,27587.414062
37.714,0.819804,-0.195989,0.537353,4636.084473,-29040.699219,21128
37.765,0.874471,-0.221673,0.479128,3365.536621,-28824.548828,21010.554688
37.816,0.885817,-0.195001,0.502813,3321.724121,-28824.548828,18191.898438
37.867,0.988963,-0.182159,0.463338,1043.500488,-29040.699219,18074.453125
37.919,0.835276,-0.206856,0.469259,1043.500488,-28824.548828,14551.132812
37.969,0.882723,-0.162402,0.436692,1306.372559,-28781.318359,14551.132812
38.019,0.88788,-0.186111,0.467285,1262.560059,-28305.789062,14551.132812
38.07,0.878597,-0.190062,0.413994,-270.859863,-28305.789062,14433.6875
38.121,0.97246,-0.131779,0.416955,-270.859863,-28305.789062,10910.367188
38.172,0.912635,-0.190062,0.437679,-7.987793,-28262.558594,10792.921875
38.224,0.918824,-0.1545,0.375506,-51.799805,-27052.119141,9501.039062
38.275,0.980712,-0.130791,0.375506,-796.603516,-27008.888672,9383.59375
38.326,0.914698,-0.143633,0.405112,-2592.895996,-26273.978516,5860.273438
38.378,0.95802,-0.118937,0.360703,-2592.895996,-26230.75,5742.835938
38.43,0.970397,-0.096217,0.366624,-2067.151855,-26014.599609,2924.179688
38.482,0.933265,-0.121901,0.292608,-2110.963867,-25971.369141,2806.734375
38.532,1.010624,-0.055715,0.369585,-3118.639648,-25755.21875,-1421.25
38.584,0.963177,-0.049788,0.253133,-3162.45166,-25711.990234,-1538.695312
38.635,0.983806,-0.009286,0.289648,-3863.443848,-24458.318359,-5766.679688
38.686,0.960083,-0.040897,0.274845,-3907.255859,-24415.089844,-5884.125
38.738,0.993089,0.002568,0.268923,-4652.05957,-23204.648438,-8702.78125
38.789,1.017844,0.011459,0.508734,-4695.87207,-23161.419922,-8820.226562
38.84,0.916761,0.075669,0.356755,-4914.931641,-20870.228516,-12343.546875
38.892,1.009593,0.078633,0.164315,-4958.743652,-20827,-12343.546875
38.945,1.063228,0.073694,0.204776,-5703.547852,-19616.558594,-12343.546875
38.998,0.975554,0.101353,0.210698,-5703.547852,-19573.330078,-12460.984375
39.049,1.02197,0.095426,0.174183,-4652.05957,-18579.039062,-18098.296875
39.101,0.977617,0.097402,0.197868,-4695.87207,-18535.808594,-18215.742188
39.152,1.008561,0.205078,0.188,-5703.547852,-18319.660156,-20329.734375
39.203,0.945642,0.161612,0.186026,-5703.547852,-18276.429688,-20447.179688
39.254,1.02197,0.247555,0.118918,-4652.05957,-16287.849609,-26906.601562
39.304,1.027127,0.198163,0.072535,-4695.87207,-16244.619141,-27024.046875
39.355,1.042599,0.252494,0.14359,-5177.803711,-15250.330078,-27611.265625
39.406,1.010624,0.261385,0.104115,-5177.803711,-15207.099609,-27728.710938
39.457,1.001341,0.270276,0.041942,-4914.931641,-14731.570312,-31252.03125
39.51,0.961114,0.253482,0.142603,-4914.931641,-14688.339844,-31369.46875
39.562,0.964208,0.287069,-0.01431,-4914.931641,-13218.519531,-32661.355469
39.613,0.948736,0.451052,0.042929,-4914.931641,-13175.289062,-32778.800781
39.665,1.011655,0.180381,0.105102,-3863.443848,-12699.759766,-37828.890625
39.716,0.934296,0.372024,-0.23537,-3863.443848,-12656.529297,-37946.335938
39.767,1.01475,0.480688,-0.01727,-3644.383789,-11402.859375,-41352.210938
39.818,0.914698,0.363133,-0.023192,-3644.383789,-11359.630859,-41352.210938
39.87,0.882723,0.300899,0.090299,-3644.383789,-9630.429688,-40647.546875
39.921,0.936359,0.447101,0.199842,-3644.383789,-9587.199219,-40764.992188
39.972,0.869314,0.50736,0.260041,-2855.767578,-7814.77002,-45815.082031
40.022,0.966271,0.569594,0.015297,-2855.767578,-7771.539551,-45815.082031
40.073,0.860031,0.489578,0.098194,-2330.023926,-7079.859863,-42174.320312
40.125,0.840433,0.461918,0.1278,-2373.835938,-7036.630371,-42174.320312
40.176,0.863125,0.598242,0.181091,-2592.895996,-5782.960449,-39942.882812
40.227,0.756885,0.647634,0.09326,-2592.895996,-5739.72998,-39942.882812
40.279,0.842496,0.614047,0.141616,-1278.535645,-3967.299805,-39942.882812
40.331,0.740382,0.670355,0.241291,-1278.535645,-3924.069824,-39942.882812
40.382,0.778546,0.674306,0.263989,517.756348,-1676.109863,-39238.21875
40.433,0.595977,0.650598,0.253133,517.756348,-1632.879883,-39238.21875
40.483,0.680557,0.694063,0.296556,1832.116699,615.079834,-33366.019531
40.534,0.681588,0.696039,0.182078,1832.116699,658.309814,-33366.019531
40.585,0.676431,0.74148,0.351821,2883.604004,1652.599976,-29020.59375
40.637,0.568128,0.74148,0.369585,2883.604004,1695.829956,-29020.59375
40.688,0.564002,1.050677,0.275831,4154.151855,2949.5,-25379.828125
40.74,0.513461,0.730613,0.425836,4154.151855,2992.72998,-25379.828125
40.791,0.508303,0.758273,0.352808,6520.000488,4981.310059,-23970.5
40.842,0.495926,0.709869,0.440639,6520.000488,4938.080078,-23970.5
40.892,0.282414,1.043762,0.433731,7527.67627,4203.169922,-20329.734375
40.942,0.422692,0.766176,0.455443,7527.67627,4203.169922,-20329.734375
40.992,0.485611,0.79186,0.458403,8842.037109,6278.209961,-16688.96875
41.043,0.366993,0.756298,0.470246,8842.037109,6278.209961,-16688.96875
41.093,0.44229,0.71382,0.417941,9367.78125,6278.209961,-15162.203125
41.144,0.424755,0.83335,0.511694,9367.78125,6278.209961,-15162.203125
41.195,0.425786,0.840265,0.582749,10375.457031,6753.739746,-14457.539062
41.246,0.363899,0.69999,0.496891,10375.457031,6753.739746,-14457.539062
41.297,0.327798,0.821496,0.602487,11689.816406,7013.120117,-12343.546875
41.348,0.311294,0.732589,0.579789,11689.816406,7013.120117,-12343.546875
41.4,0.270036,0.706905,0.631106,14274.724609,8050.639648,-7176.007812
41.452,0.257659,0.679245,0.667621,14274.724609,8007.409668,-7176.007812
41.503,0.24425,0.613059,0.687358,14800.46875,7791.259766,-2830.578125
41.555,0.243218,0.623926,0.741636,14800.46875,7748.029785,-2830.578125
41.606,0.22362,0.593302,0.71203,15063.341797,7272.5,1514.851562
41.656,0.208149,0.637756,0.731767,15063.341797,7229.269531,1514.851562
41.707,0.08231,0.620962,0.718938,15326.212891,4981.310059,11732.476562
41.758,0.193708,0.602193,0.789993,15326.212891,4981.310059,11732.476562
41.809,0.195771,0.628865,0.777164,16903.445312,4981.310059,12437.140625
41.86,0.134915,0.546873,0.726833,16903.445312,4981.310059,12319.695312
41.911,0.123569,0.616023,0.776177,17911.121094,5240.689941,11732.476562
41.962,0.108097,0.641707,0.735715,17911.121094,5240.689941,11615.03125
42.013,-0.049716,0.671342,0.823547,21284.644531,5500.069824,10323.148438
42.064,-0.100258,0.590339,0.705122,21284.644531,5500.069824,10323.148438
42.116,-0.07344,0.619974,0.764334,24658.167969,5500.069824,16782.570312
42.167,-0.096132,0.627877,0.738676,24658.167969,5500.069824,16665.125
42.219,-0.147705,0.67233,0.747557,26235.400391,7272.5,12437.140625
42.271,-0.211655,0.660476,0.724859,26235.400391,7272.5,12319.695312
42.323,-0.30655,0.708881,0.698214,29083.181641,8050.639648,10205.703125
42.374,-0.282826,0.637756,0.659726,29083.181641,8050.639648,10088.257812
42.425,-0.382878,0.725674,0.615316,30923.283203,8310.019531,5860.273438
42.476,-0.396287,0.670355,0.546235,30923.283203,8310.019531,5742.835938
42.527,-0.397318,0.714808,0.639988,34559.679688,9347.540039,105.523438
42.578,-0.436514,0.588363,0.523537,34559.679688,9347.540039,-11.921875
42.628,-0.698504,0.556752,0.465311,36355.972656,10341.830078,-7880.671875
42.678,-0.556163,0.629853,0.414981,36355.972656,10298.599609,-7998.117188
42.729,-0.563383,0.618986,0.411033,40255.238281,10082.449219,-13752.875
42.78,-0.591233,0.685172,0.431758,40255.238281,10039.219727,-13870.3125
42.83,-0.607736,0.643683,0.45939,42577.273438,8828.779297,-16688.96875
42.882,-0.652089,0.662452,0.392283,42577.273438,8785.549805,-16806.414062
42.933,-0.656215,0.470809,0.407086,43365.890625,7531.879883,-17393.632812
42.984,-0.513873,0.63578,0.400178,43365.890625,7531.879883,-17511.078125
43.035,-0.783084,0.58046,0.25116,45425.054688,7791.259766,-21034.398438
43.086,-0.816091,0.520202,0.336031,45425.054688,7748.029785,-21151.84375
43.136,-0.830531,0.545886,0.376493,47002.285156,5759.450195,-26789.15625
43.186,-0.789273,0.506372,0.3459,47002.285156,5716.219727,-26906.601562
43.237,-0.832594,0.47476,0.162341,48798.578125,5500.069824,-29725.257812
43.288,-0.816091,0.482663,0.200829,48798.578125,5500.069824,-29842.703125
43.339,-0.835688,0.470809,0.110037,49324.324219,5500.069824,-35597.457031
43.391,-0.856318,0.489578,0.105102,49324.324219,5456.839844,-35714.898438
43.442,-0.715008,0.397708,-0.023192,50638.683594,4203.169922,-42174.320312
43.493,-0.973904,0.445125,-0.026152,50638.683594,4159.939941,-42291.765625
43.544,-0.979061,0.406599,-0.056745,51164.425781,2949.5,-48633.738281
43.596,-1.30294,0.400672,-0.074509,51164.425781,2949.5,-48751.183594
43.648,-0.960495,0.358194,-0.165301,52697.847656,1911.979858,-54505.941406
43.7,-0.914079,0.362146,-0.161354,52654.035156,1911.979858,-54623.382812
43.752,-0.82228,0.354243,-0.211685,51427.300781,615.079834,-61787.46875
43.804,-0.863538,0.369061,-0.218593,51427.300781,658.309814,-61904.910156
43.855,-0.852192,0.334486,-0.385375,51427.300781,1652.599976,-67542.226562
43.905,-0.870758,0.33251,-0.403138,51383.488281,1652.599976,-67659.671875
43.956,-0.847035,0.308802,-0.53834,49061.449219,-379.209961,-75645.859375
44.008,-0.824342,0.290033,-0.438666,49017.640625,-379.209961,-75763.304688
44.06,-0.789273,0.273239,-0.599526,48053.773438,-2973.010254,-86568.15625
44.113,-0.745952,0.278178,-0.561038,48009.964844,-2973.010254,-86685.59375
44.165,-0.704693,0.246567,-0.641962,45205.996094,-4486.060059,-91735.6875
44.216,-0.673749,0.186308,-0.619264,45162.183594,-4486.060059,-100896.320312
44.269,-0.639711,0.124074,-0.814665,43584.949219,-6301.720215,-100896.320312
44.32,-0.576792,0.140867,-0.789993,42051.53125,-7079.859863,-104537.085938
44.371,-0.54688,0.160624,-0.703148,42051.53125,-7079.859863,-104537.085938
44.422,-0.499433,0.193223,-0.906444,42007.71875,-8074.149902,-107473.1875
44.473,-0.445797,0.210017,-0.7594,38371.324219,-8030.92041,-107473.1875
44.524,-0.344714,0.169515,-0.744597,35830.226562,-7814.77002,-108177.84375
44.576,-0.311707,0.191248,-0.93309,35786.414062,-7771.539551,-108177.84375
44.629,-0.272512,0.145807,-1.021909,32456.705078,-7296.010254,-108999.953125
44.682,-0.230222,0.164576,-0.96467,32412.892578,-7252.779785,-108999.953125
44.733,-0.196184,0.1626,-0.9173,28557.435547,-6820.47998,-111113.945312
44.786,-0.167303,0.207053,-0.940985,28513.623047,-6777.249512,-111113.945312
44.837,-0.131202,0.208041,-0.893615,27024.017578,-6042.340332,-111113.945312
44.888,-0.113667,0.302875,-0.965657,26980.205078,-5999.109863,-110996.5
44.939,-0.145642,0.244592,-0.923221,24921.041016,-5264.199707,-108999.953125
44.99,-0.035276,0.218907,-0.908418,24877.228516,-5220.970215,-108882.515625
45.041,-0.067251,0.211992,-0.944932,24395.296875,-5004.819824,-108177.84375
45.092,-0.005364,0.306826,-0.970591,24351.484375,-4961.589844,-108060.40625
45.143,0.066839,0.229774,-0.936051,22861.876953,-4226.680176,-104537.085938
45.194,0.096751,0.228786,-0.852166,22818.064453,-4226.680176,-104419.640625
45.246,0.116349,0.330534,-0.993289,20014.097656,-4486.060059,-102423.09375
45.297,0.128726,0.207053,-1.143294,19970.285156,-4442.830078,-102305.648438
45.349,0.143167,0.269288,-0.934077,18436.865234,-4226.680176,-99486.992188
45.399,0.35771,0.227798,-0.686371,18393.052734,-4226.680176,-99369.546875
45.45,0.222589,0.233725,-0.914339,16640.572266,-4745.439941,-98782.328125
45.501,0.317483,0.210017,-0.939998,16596.761719,-4745.439941,-98782.328125
45.552,0.335018,0.17643,-0.878812,16114.828125,-5004.819824,-98782.328125
45.604,0.345333,0.223847,-0.943946,16071.017578,-5004.819824,-98664.882812
45.657,0.439195,0.177418,-0.830455,14800.46875,-5782.960449,-97373
45.709,0.441258,0.219895,-0.922234,14756.65625,-5782.960449,-97373
45.76,0.535121,-0.024104,-0.692293,12215.560547,-6561.100098,-95259.007812
45.812,0.539247,0.219895,-1.028817,12171.748047,-6561.100098,-95259.007812
45.863,0.572254,0.197175,-0.807757,10156.396484,-6820.47998,-91618.242188
45.914,0.595977,0.138892,-0.825521,10112.583984,-6820.47998,-91618.242188
45.964,0.613512,0.170503,-0.814665,8316.292969,-7814.77002,-91618.242188
46.015,0.644456,0.130989,-0.724859,8272.480469,-7771.539551,-91618.242188
46.066,0.641362,0.104317,-0.716964,7790.54834,-6820.47998,-88682.140625
46.117,0.694997,0.171491,-0.909405,7746.73584,-6820.47998,-88682.140625
46.167,0.686746,0.093451,-0.53834,5731.384277,-7079.859863,-85746.046875
46.219,0.753791,0.130989,-0.88572,5687.572754,-7079.859863,-85746.046875
46.27,0.761011,0.138892,-0.517616,4679.895996,-8074.149902,-82105.28125
46.322,0.759979,0.133952,-0.772229,4636.084473,-8074.149902,-82105.28125
46.373,0.808458,0.13494,-0.417941,3891.280762,-8592.910156,-77055.1875
46.425,0.803301,-0.196977,-0.635054,3847.468262,-8549.679688,-77055.1875
46.478,0.920887,-0.012249,-0.47518,3365.536621,-8333.529297,-77055.1875
46.529,0.787829,-0.206856,-0.440639,3321.724121,-8333.529297,-77055.1875
46.58,1.076637,0.069742,-0.738676,2094.987793,-9889.810547,-71182.984375
46.631,0.901289,0.04307,-0.481101,2051.17627,-9889.810547,-71182.984375
46.682,1.003404,-0.036946,-0.241291,-752.791504,-13218.519531,-65428.234375
46.733,1.005467,-0.042873,-0.338991,-796.603516,-13218.519531,-65428.234375
46.784,0.971429,-0.148573,-0.227475,-2067.151855,-15509.708984,-59556.03125
46.836,0.996184,-0.032006,-0.329123,-2110.963867,-15509.708984,-59556.03125
46.887,0.953894,-0.083374,-0.171223,-3118.639648,-16806.609375,-50160.511719
46.938,1.035379,-0.158451,-0.195895,-3162.45166,-16806.609375,-50160.511719
46.99,1.030222,-0.039909,-0.165301,-3381.511719,-17325.369141,-47929.074219
47.042,1.006498,-0.134743,-0.101155,-3425.32373,-17325.369141,-47811.632812
47.094,1.056008,-0.07646,-0.194908,-4652.05957,-18060.279297,-32661.355469
47.146,1.025064,-0.150548,-0.047863,-4695.87207,-18060.279297,-32661.355469
47.198,1.063228,-0.120913,0.052798,-5177.803711,-18838.419922,-28315.929688
47.249,1.048788,-0.119925,-0.047863,-5177.803711,-18838.419922,-28315.929688
47.301,1.015781,-0.110046,0.026152,-5177.803711,-18838.419922,-25379.828125
47.351,1.027127,-0.069545,0.018257,-5177.803711,-18838.419922,-25379.828125
47.402,1.001341,-0.113998,0.14359,-4914.931641,-19357.179688,-20329.734375
47.453,1.026096,-0.146597,0.163328,-4914.931641,-19313.949219,-20329.734375
47.504,1.050851,-0.122888,0.185039,-4126.31543,-19097.798828,-12226.101562
47.555,0.987932,-0.194014,0.239317,-4126.31543,-19054.570312,-12226.101562
47.605,0.95802,-0.167342,0.367611,-2855.767578,-18838.419922,-1303.804688
47.656,0.907478,-0.150548,0.293595,-2855.767578,-18838.419922,-1303.804688
47.707,0.912635,-0.096217,0.509721,-752.791504,-20135.320312,8091.710938
47.758,0.871377,-0.206856,0.456429,-752.791504,-20135.320312,8091.710938
47.809,0.837339,-0.195001,0.531432,780.628418,-20394.699219,15373.242188
47.859,0.825993,-0.225625,0.532419,780.628418,-20351.46875,15373.242188
47.91,0.858999,-0.152524,0.537353,1832.116699,-19875.939453,23476.875
47.961,0.818773,-0.224637,0.662686,1832.116699,-19832.708984,23476.875
48.012,0.765137,-0.193026,0.605448,3146.476074,-19616.558594,26295.53125
48.064,0.751728,-0.209819,0.597553,3146.476074,-19616.558594,26295.53125
48.116,0.71769,-0.211795,0.699201,4942.768066,-19616.558594,32872.398438
48.168,0.679526,0.033192,0.66466,4942.768066,-19616.558594,32872.398438
48.22,0.68262,-0.210807,0.735715,7264.804199,-20654.080078,35808.5
48.269,0.626921,-0.23254,0.747557,7264.804199,-20610.849609,35808.5
48.32,0.604229,-0.244394,0.766308,8053.42041,-20135.320312,37217.828125
48.371,0.566065,-0.200929,0.762361,8053.42041,-20135.320312,37217.828125
48.421,0.533058,-0.285884,0.832429,9893.525391,-21129.609375,42385.359375
48.471,0.516555,-0.212783,0.74361,9893.525391,-21086.378906,42385.359375
48.522,0.489737,-0.277981,0.856114,12215.560547,-20135.320312,44499.359375
48.573,0.49902,-0.227601,0.795914,12215.560547,-20092.089844,44499.359375
48.624,0.44951,-0.248345,0.887694,13529.919922,-19357.179688,47435.453125
48.675,0.433007,-0.263163,0.808744,13529.919922,-19357.179688,47435.453125
48.726,0.411346,-0.274029,0.864009,14800.46875,-20135.320312,48140.109375
48.778,0.35771,-0.298726,0.965657,14800.46875,-20135.320312,48140.109375
48.829,0.358742,-0.151536,0.776177,15326.212891,-20654.080078,48844.78125
48.88,0.304074,-0.297738,0.918287,15326.212891,-20610.849609,48844.78125
48.931,0.283445,-0.298726,0.88572,18962.609375,-20394.699219,52485.546875
48.982,0.295823,-0.287859,0.884733,18962.609375,-20394.699219,52485.546875
49.034,0.266942,-0.307616,0.985394,20539.841797,-20654.080078,54716.984375
49.085,0.219495,-0.29675,0.924208,20539.841797,-20654.080078,54716.984375
49.137,0.303043,-0.173269,0.859074,22073.261719,-20913.458984,54716.984375
49.189,0.139041,-0.441964,0.929142,22073.261719,-20913.458984,54599.53125
49.24,0.1246,-0.376766,1.035725,23124.748047,-21129.609375,53190.203125
49.291,0.089531,-0.197965,0.899536,23124.748047,-21129.609375,53190.203125
49.342,0.061681,-0.377754,1.061384,26761.146484,-21388.990234,56126.3125
49.393,0.077153,-0.137706,0.860061,26761.146484,-21345.759766,56126.3125
49.444,-0.013615,-0.20488,0.957762,28294.564453,-19357.179688,57653.078125
49.495,0.016297,-0.108071,0.915326,28294.564453,-19313.949219,57535.640625
49.546,-0.040433,-0.150548,1.069279,29083.181641,-16806.609375,55421.640625
49.597,0.005982,-0.042873,1.015,29083.181641,-16763.378906,55304.203125
49.648,-0.051779,-0.041885,1.039672,30397.541016,-15509.708984,54012.3125
49.698,-0.022898,0.00652,0.98342,30397.541016,-15466.478516,54012.3125
49.748,-0.088912,-0.052751,0.971578,30397.541016,-13218.519531,54012.3125
49.799,-0.062094,0.016398,0.99625,30397.541016,-13175.289062,53894.875
49.85,-0.114698,0.115183,1.01204,31668.087891,-11143.480469,53190.203125
49.901,-0.097163,0.069742,1.010066,31668.087891,-11100.25,53072.765625
49.951,-0.138422,0.14877,1.010066,32719.576172,-9371.050781,50371.546875
50.002,-0.131202,0.167539,0.955788,32675.763672,-9327.820312,50254.109375
50.053,-0.145642,0.189272,0.98342,32456.705078,-8074.149902,46730.78125
50.104,-0.17246,0.211005,0.870917,32456.705078,-8030.92041,46613.34375
50.155,-0.168334,0.211992,0.959736,33771.0625,-5264.199707,44499.359375
50.205,-0.167303,0.263361,0.963683,33771.0625,-5220.970215,44499.359375
50.256,-0.223002,0.353255,0.926182,34778.738281,-3967.299805,44499.359375
50.307,-0.227127,0.330534,0.913352,34778.738281,-3924.069824,44381.90625
50.358,-0.230222,0.47476,1.000197,35567.355469,-1935.490234,38627.15625
50.408,-0.241568,0.369061,0.895589,35567.355469,-1892.260254,38509.703125
50.459,-0.303455,0.662452,0.937037,36881.714844,96.319824,31463.070312
50.51,-0.283858,0.527116,0.654791,36881.714844,182.780029,31345.625
50.561,-0.290046,0.664428,0.69624,38678.007812,4981.310059,20423.335938
50.613,-0.22197,0.504396,0.654791,38678.007812,4981.310059,20305.890625
50.664,-0.334399,0.756298,0.724859,38678.007812,6537.589844,13259.25
50.715,-0.323053,0.67233,0.666634,38678.007812,6537.589844,13141.804688
50.766,-0.295204,0.681221,0.661699,39729.496094,8828.779297,7387.046875
50.817,-0.368437,0.820508,0.586697,39685.683594,8828.779297,7269.601562
50.868,-0.353997,0.757285,0.499852,39466.621094,10341.830078,1162.515625
50.919,-0.390098,0.794824,0.414981,39466.621094,10341.830078,-28433.375
50.971,-0.382878,0.820508,0.386361,39729.496094,11119.969727,-9524.890625
51.023,-0.460237,0.84718,0.335044,39729.496094,11119.969727,-21034.398438
51.075,-0.456111,0.831374,0.332083,40518.109375,11638.730469,-21151.84375
51.127,-0.438577,0.824459,0.277805,40518.109375,12416.869141,-31252.03125
51.178,-0.466426,0.777042,0.257081,40780.984375,12373.640625,-31369.46875
51.229,-0.501496,0.874839,0.145564,41306.726562,11638.730469,-37711.449219
51.281,-0.537597,0.870888,0.208724,41306.726562,11595.5,-37828.890625
51.332,-0.526251,0.860022,0.103128,41569.597656,10860.589844,-43583.648438
51.383,-0.595358,0.822483,0.011349,41569.597656,10817.359375,-43701.09375
51.434,-0.543785,0.759261,-0.025165,41788.660156,10082.449219,-50160.511719
51.485,-0.560289,0.845204,-0.044903,41788.660156,10039.219727,-50277.957031
51.536,-0.572666,0.779018,-0.090299,42577.273438,9347.540039,-56619.933594
51.587,-0.562352,0.815569,-0.047863,42533.464844,9304.310547,-56737.375
51.638,-0.590201,0.765188,-0.117932,41788.660156,8050.639648,-63901.460938
51.688,-0.59639,0.811617,-0.141616,41788.660156,8007.409668,-64018.902344
51.739,-0.602579,0.749383,-0.169249,42314.402344,7272.5,-68246.890625
51.79,-0.629397,0.776055,-0.19096,42314.402344,7229.269531,-68364.328125
51.841,-0.604642,0.67727,-0.174183,43103.019531,6753.739746,-72709.757812
51.892,-0.61083,0.781982,-0.220566,43059.207031,6710.509766,-72827.203125
51.942,-0.586075,0.634792,-0.26991,42314.402344,6018.830078,-76350.523438
51.993,-0.597421,0.766176,-0.374519,42270.589844,5975.599609,-76467.96875
52.043,-0.597421,0.67727,-0.322215,41788.660156,4721.929688,-83632.054688
52.095,-0.567509,0.673318,-0.539327,41744.847656,4678.699707,-83749.5
52.146,-0.498401,0.605157,-0.449521,39992.367188,3165.649902,-87272.8125
52.196,-0.529345,0.645658,-0.474193,39948.554688,3165.649902,-87390.257812
52.247,-0.572666,0.681221,-0.504786,37144.585938,1133.839966,-95259.007812
52.298,-0.326147,0.406599,-0.405112,37100.773438,1133.839966,-95376.453125
52.349,-0.465395,0.705917,-0.674529,36355.972656,1133.839966,-97373
52.399,-0.369469,0.587375,-0.565973,36312.160156,1133.839966,-97373
52.45,-0.340588,0.499457,-0.642949,32719.576172,355.699951,-99486.992188
52.501,-0.337494,0.58046,-0.663673,32675.763672,355.699951,-99486.992188
52.552,-0.303455,0.449076,-0.916313,30660.412109,-2713.629883,-108177.84375
52.603,-0.305518,0.431295,-0.812691,30616.599609,-2713.629883,-108177.84375
52.654,-0.351934,0.458955,-0.910392,29608.923828,-6561.100098,-113345.382812
52.705,-0.294172,0.355231,-0.857101,29565.111328,-6561.100098,-113345.382812
52.756,-0.384941,0.421417,-0.789993,28557.435547,-8592.910156,-113345.382812
52.807,-0.245694,0.319668,-0.749531,28557.435547,-8592.910156,-113227.9375
52.858,-0.274575,0.206065,-0.862035,29608.923828,-8852.289062,-112640.71875
52.909,0.013203,0.235701,-1.113688,29565.111328,-8852.289062,-112640.71875
52.961,-0.199278,0.097402,-0.864009,27768.822266,-12699.759766,-116281.484375
53.012,-0.237442,0.047022,-0.99921,27725.009766,-12742.990234,-116281.484375
53.063,-0.123981,0.026277,-1.04658,27024.017578,-17325.369141,-118395.476562
53.114,-0.083755,-0.064605,-0.899536,26980.205078,-17368.599609,-118278.03125
53.165,-0.100258,-0.131779,-0.9173,24176.236328,-22426.509766,-116281.484375
53.216,-0.141516,-0.153512,-0.977499,24132.425781,-22426.509766,-116281.484375
53.268,-0.144611,-0.295762,-0.9173,22861.876953,-26014.599609,-116281.484375
53.319,-0.175554,-0.198953,-1.081121,22861.876953,-26014.599609,-116164.039062
53.37,-0.12295,-0.303665,-0.904471,23650.492188,-28305.789062,-112640.71875
53.421,-0.138422,-0.263163,-0.941972,23650.492188,-28305.789062,-112523.273438
53.473,-0.121919,-0.3333,-0.905457,23913.365234,-30640.208984,-111113.945312
53.524,-0.10851,-0.364912,-0.928156,23869.552734,-30640.208984,-110996.5
53.575,-0.104384,-0.433073,-0.916313,23387.621094,-32672.017578,-110409.28125
53.628,-0.074471,-0.401462,-0.83835,23387.621094,-32672.017578,-110291.84375
53.68,-0.094069,-0.502223,-0.853153,23913.365234,-33709.542969,-106063.859375
53.733,-0.08066,-0.500247,-0.807757,23869.552734,-33709.542969,-106063.859375
53.785,-0.103352,-0.518028,-0.810717,22861.876953,-35481.972656,-106063.859375
53.837,-0.13017,-0.574336,-0.85414,22818.064453,-35481.972656,-105946.414062
53.889,-0.113667,-0.638546,-0.794927,21810.388672,-37816.390625,-103127.757812
53.94,-0.094069,-0.568409,-0.826507,21810.388672,-37816.390625,-103010.3125
53.991,-0.088912,-0.654351,-0.695253,23387.621094,-39848.199219,-94554.34375
54.042,-0.101289,-0.625704,-0.748544,23387.621094,-39848.199219,-94554.34375
54.094,-0.095101,-0.74227,-0.694266,23387.621094,-41923.242188,-92322.90625
54.145,-0.097163,-0.765978,-0.595579,23387.621094,-41923.242188,-92322.90625
54.197,-0.118824,-0.752149,-0.615316,23387.621094,-43955.050781,-87977.484375
54.249,-0.118824,-0.748197,-0.600513,23343.808594,-43955.050781,-87977.484375
54.301,-0.132233,-0.774869,-0.646896,23124.748047,-43955.050781,-84336.71875
54.353,-0.129139,-0.768942,-0.536366,23124.748047,-43955.050781,-84336.71875
54.405,-0.152862,-0.827225,-0.578802,24176.236328,-46765,-79991.289062
54.457,-0.133265,-0.81142,-0.571894,24132.425781,-46721.769531,-79991.289062
54.509,-0.144611,-0.808456,-0.559064,23650.492188,-45468.101562,-77759.851562
54.56,-0.152862,-0.822286,-0.577815,23650.492188,-45468.101562,-77759.851562
54.611,-0.12295,-0.790675,-0.518603,24395.296875,-47024.382812,-77759.851562
54.663,-0.128107,-0.808456,-0.496891,24395.296875,-47024.382812,-77759.851562
54.716,-0.120887,-0.829201,-0.430771,24658.167969,-47283.761719,-74119.085938
54.768,-0.160083,-0.832164,-0.406099,24614.357422,-47283.761719,-74119.085938
54.82,-0.155957,-0.93984,-0.343926,23650.492188,-49056.191406,-66837.5625
54.872,-0.161114,-0.921071,-0.264976,23650.492188,-49056.191406,-66837.5625
54.923,-0.143579,-0.975403,-0.204776,24658.167969,-50353.089844,-58146.703125
54.974,-0.125013,-0.999111,-0.113984,24658.167969,-50353.089844,-58146.703125
55.026,-0.154925,-1.006026,-0.083391,25183.912109,-51390.609375,-47929.074219
55.077,-0.139453,-1.028746,0.00148,25140.101562,-51390.609375,-47929.074219
55.128,-0.13017,-0.959597,-0.078457,24658.167969,-51909.371094,-42056.875
55.179,-0.121919,-1.025783,-0.039968,24614.357422,-51866.140625,-42056.875
55.23,-0.11573,-1.008002,-0.037008,23650.492188,-51649.992188,-37711.449219
55.281,-0.067251,-0.9675,0.01727,23650.492188,-51606.761719,-37711.449219
55.332,-0.045591,-0.993184,0.20675,23650.492188,-51390.609375,-31134.585938
55.384,-0.103352,-0.896375,0.214645,23650.492188,-51390.609375,-31017.140625
55.435,-0.076534,-0.959597,0.267936,23650.492188,-52168.75,-17393.632812
55.486,-0.094069,-0.918107,0.274845,23606.681641,-52125.519531,-17393.632812
55.538,-0.088912,-0.992196,0.316293,22861.876953,-49834.332031,-10112.109375
55.59,-0.06622,-0.894399,0.31432,22818.064453,-49791.101562,-10112.109375
55.643,-0.072408,-0.933913,0.384388,21810.388672,-49574.949219,-2830.578125
55.695,-0.061062,-0.915144,0.421889,21810.388672,-49531.722656,105.523438
55.747,-0.237442,-0.467648,0.154446,22073.261719,-49012.960938,105.523438
55.799,-0.048685,-1.048503,0.69624,22073.261719,-47283.761719,8209.15625
55.85,-0.117793,-0.730416,0.428797,22336.132812,-47240.53125,8209.15625
55.901,-0.107478,-0.72844,0.612356,22336.132812,-46246.242188,17604.679688
55.952,-0.242599,-0.781784,0.68045,22599.005859,-46203.011719,17604.679688
56.004,-0.260134,-0.708683,0.877825,24658.167969,-44473.8125,24181.539062
56.055,-0.209593,-0.658303,0.702161,24658.167969,-44387.351562,24181.539062
56.106,-0.22919,-0.629655,0.753479,26498.271484,-39848.199219,32167.734375
56.158,-0.203404,-0.602983,0.716964,26454.458984,-39804.972656,32167.734375
56.21,-0.202372,-0.630643,0.865982,26235.400391,-38810.679688,40153.921875
56.263,-0.147705,-0.552603,0.744597,26191.587891,-38767.449219,40153.921875
56.314,-0.128107,-0.687938,0.72782,25972.529297,-37038.25,40153.921875
56.365,-0.068283,-0.454806,0.823547,25928.716797,-36995.019531,40153.921875
56.417,-0.078597,-0.450854,0.897562,24921.041016,-35481.972656,43794.6875
56.469,-0.055905,-0.36096,0.981447,24877.228516,-35438.742188,43794.6875
56.52,-0.024961,-0.429122,0.919274,23124.748047,-33709.542969,46730.78125
56.572,-0.004332,-0.33824,0.927169,23080.9375,-33666.3125,46613.34375
56.623,0.016297,-0.300701,1.010066,21547.517578,-31893.880859,45321.453125
56.674,0.036926,-0.281932,0.876838,21503.705078,-31850.650391,45321.453125
56.725,0.046209,-0.345155,1.020922,20802.712891,-29343.308594,48257.5625
56.776,0.123569,-0.16833,0.944932,20758.900391,-29300.080078,48257.5625
56.827,0.128726,-0.082387,0.731767,20014.097656,-28046.410156,48962.21875
56.878,0.177205,-0.094241,0.855127,19970.285156,-28003.179688,48962.21875
56.929,0.226715,-0.309592,1.28343,18436.865234,-26792.740234,49666.890625
56.982,0.208149,-0.047812,1.032764,18393.052734,-26749.509766,49666.890625
57.033,0.156576,-0.089302,0.750518,18173.992188,-24501.548828,53307.65625
57.086,0.276225,0.018374,1.013027,18130.181641,-24458.318359,53307.65625
57.137,0.320578,0.025289,1.119609,17385.376953,-22426.509766,54012.3125
57.189,0.31542,0.057888,0.925195,17341.564453,-22383.279297,54012.3125
57.24,0.336049,0.210017,0.938024,16640.572266,-19616.558594,55539.09375
57.291,0.35771,0.131977,0.818612,16596.761719,-19486.869141,55539.09375
57.342,0.389685,0.270276,1.108754,15851.957031,-10667.949219,61293.84375
57.393,0.401031,0.141855,0.688345,15808.144531,-10581.490234,61176.40625
57.444,0.371119,0.483651,0.851179,15063.341797,-4486.060059,59767.078125
57.495,0.446416,0.270276,0.853153,15019.529297,-4442.830078,59649.625
57.546,0.38556,0.408575,0.789006,14011.853516,-1157.350098,57653.078125
57.596,0.446416,0.449076,0.915326,14011.853516,-1114.120117,57653.078125
57.647,0.415472,0.366097,0.789993,14011.853516,2949.5,57653.078125
57.698,0.380402,0.47476,0.765321,14011.853516,2992.72998,57653.078125
57.749,0.401031,0.477724,0.880786,14537.597656,3684.409912,59179.859375
57.8,0.43507,0.372024,0.656765,14493.785156,3641.179932,59062.40625
57.851,0.44229,0.405611,0.852166,14011.853516,2430.73999,57653.078125
57.901,0.48458,0.374988,0.98046,13968.041016,2473.969971,57653.078125
57.952,0.446416,0.391781,0.80677,13529.919922,2949.5,59767.078125
58.003,0.439195,0.211005,0.794927,13486.109375,2906.27002,59767.078125
58.054,0.452604,0.322632,0.783085,12478.433594,-1676.109863,62115.953125
58.104,0.445384,0.088511,0.9173,12478.433594,-1719.339844,61998.515625
58.154,0.466013,0.111232,1.006119,13267.048828,-6820.47998,60589.1875
58.204,0.444353,0.12111,0.943946,13223.236328,-6820.47998,60589.1875
58.255,0.352553,0.153709,0.789006,12741.304688,-8592.910156,62820.609375
58.306,0.430944,-0.001383,0.855127,12697.492188,-8636.140625,62703.171875
58.358,0.382465,-0.207844,1.035725,12478.433594,-13737.279297,56948.421875
58.41,0.386591,-0.054727,0.99921,12478.433594,-13780.509766,56830.96875
58.463,0.316452,-0.173269,0.900523,13792.792969,-18838.419922,52602.984375
58.515,0.231872,-0.180184,0.940985,13792.792969,-18838.419922,52602.984375
58.567,0.198865,-0.213771,0.881772,15326.212891,-20654.080078,53307.65625
58.618,0.22362,-0.118937,1.001184,15326.212891,-20654.080078,53190.203125
58.669,0.165859,-0.300701,0.90151,16640.572266,-23464.029297,51898.328125
58.72,0.171016,-0.460733,1.203494,16640.572266,-23464.029297,51898.328125
58.771,0.022486,-0.419243,0.837363,18173.992188,-25236.458984,51898.328125
58.822,0.000825,-0.327373,0.828481,18173.992188,-25236.458984,51780.875
58.873,-0.06622,-0.458757,0.952827,21284.644531,-27311.5,51193.65625
58.924,-0.065188,-0.423195,0.820586,21284.644531,-27311.5,51076.21875
58.974,-0.155957,-0.533834,0.902497,23650.492188,-30640.208984,49666.890625
59.025,-0.194121,-0.441964,0.936051,23650.492188,-30640.208984,49549.4375
59.076,-0.174523,-0.399486,0.812691,25709.658203,-33968.921875,48257.5625
59.127,-0.224033,-0.619777,0.899536,25709.658203,-33968.921875,48140.109375
59.178,-0.249819,-0.66423,0.90151,26761.146484,-35481.972656,41680.703125
59.229,-0.343682,-0.675096,0.68045,26761.146484,-35481.972656,41563.25
59.28,-0.340588,-0.640522,0.729794,28820.310547,-38075.769531,40271.375
59.332,-0.390098,-0.606935,0.597553,28820.310547,-38075.769531,40153.921875
59.383,-0.424136,-0.694853,0.575841,31930.962891,-40366.960938,34399.171875
59.435,-0.437545,-0.763015,0.430771,31930.962891,-40366.960938,34281.71875
59.488,-0.460237,-0.696829,0.323201,33508.191406,-43176.910156,27822.304688
59.54,-0.488087,-0.872666,0.425836,33508.191406,-43176.910156,27587.414062
59.592,-0.487055,-0.817347,0.229448,35830.226562,-45986.859375,13963.914062
59.644,-0.573698,-0.79265,0.343926,35830.226562,-45986.859375,13729.023438
59.695,-0.54688,-0.896375,0.073522,36618.84375,-48580.660156,927.625
59.746,-0.53966,-0.667194,0.230435,36618.84375,-48580.660156,810.1875
59.797,-0.587107,-0.846982,0.06464,37407.460938,-49315.570312,-5649.234375
59.848,-0.632491,-0.760051,0.185039,37407.460938,-49315.570312,-5766.679688
59.899,-0.555131,-0.851921,-0.070562,38458.945312,-50353.089844,-15866.867188
59.95,-0.537597,-0.838091,0.217606,38415.136719,-50309.859375,-15984.304688
60.001,-0.558226,-0.876618,-0.098194,38196.074219,-50093.710938,-16571.53125
60.052,-0.563383,-0.758076,0.085365,38152.261719,-50093.710938,-16688.96875
60.102,-0.628365,-0.822286,-0.20675,37670.332031,-50871.851562,-27493.820312
60.153,-0.659309,-0.859824,-0.06464,37670.332031,-50828.621094,-27611.265625
60.204,-0.655183,-0.683987,-0.148525,39203.75,-50612.472656,-30429.921875
60.255,-0.6459,-0.625704,-0.315306,39203.75,-50569.242188,-30664.804688
60.306,-0.66034,-0.564457,-0.349847,40255.238281,-49574.949219,-47929.074219
60.358,-0.646931,-0.593105,-0.389322,40255.238281,-49531.722656,-48046.519531
60.409,-0.63868,-0.616813,-0.532419,42051.53125,-47283.761719,-59556.03125
60.46,-0.602579,-0.519016,-0.496891,42007.71875,-47240.53125,-59790.921875
60.511,-0.640743,-0.583226,-0.725846,41043.855469,-45727.480469,-72709.757812
60.564,-0.540691,-0.460733,-0.525511,41000.042969,-45684.25,-72827.203125
60.617,-0.608767,-0.410353,-0.816639,39466.621094,-43436.292969,-80695.953125
60.669,-0.249819,-0.382693,-0.627159,39422.8125,-43393.0625,-80813.398438
60.721,-0.530376,-0.298726,-0.801836,38940.878906,-41404.480469,-90091.46875
60.772,-0.496338,-0.286871,-0.778151,38897.066406,-41361.25,-90208.914062
60.823,-0.496338,-0.228588,-0.765321,38196.074219,-38551.300781,-99486.992188
60.874,-0.471583,-0.215746,-0.862035,38152.261719,-38508.070312,-99486.992188
60.925,-0.446828,-0.181172,-0.844271,37933.203125,-37038.25,-101013.765625
60.976,-0.459206,-0.203892,-0.771242,37889.390625,-36995.019531,-101013.765625
61.027,-0.569572,-0.229576,-0.779137,36355.972656,-34487.679688,-105359.195312
61.078,-0.488087,-0.171293,-0.928156,36312.160156,-34444.449219,-105241.75
61.129,-0.502527,-0.194014,-0.760387,35830.226562,-33968.921875,-104654.53125
61.18,-0.464363,-0.200929,-0.789006,35830.226562,-33925.691406,-104654.53125
61.231,-0.457143,-0.171293,-0.773216,37144.585938,-33450.160156,-106063.859375
61.283,-0.474678,-0.145609,-0.830455,37100.773438,-33406.929688,-106063.859375
61.335,-0.520062,-0.167342,-0.863022,36881.714844,-33190.78125,-106063.859375
61.387,-0.441671,-0.103131,-0.888681,36837.902344,-33147.550781,-107473.1875
61.438,-0.362249,-0.08535,-0.846245,34822.550781,-32888.171875,-107473.1875
61.491,-0.387004,0.0569,-0.912366,34778.738281,-30899.587891,-108999.953125
61.543,-0.421042,0.144819,-0.888681,34252.996094,-30856.357422,-108999.953125
61.595,-0.3705,0.12605,-0.842297,33508.191406,-27830.259766,-113345.382812
61.647,-0.349871,0.798775,-0.892628,33508.191406,-27787.029297,-113345.382812
61.698,-0.36328,0.219895,-0.789006,33508.191406,-23723.410156,-115576.820312
61.748,-0.344714,0.367085,-0.900523,33464.378906,-23680.179688,-115459.375
61.799,-0.282826,0.489578,-0.828481,33245.320312,-20913.458984,-114754.710938
61.85,-0.241568,0.628865,-0.657752,33201.507812,-20827,-114754.710938
61.902,-0.212687,0.637756,-0.778151,31668.087891,-15250.330078,-115576.820312
61.953,-0.21475,0.681221,-0.77519,31624.275391,-15163.869141,-115459.375
62.004,-0.182775,0.667391,-0.708082,29608.923828,-8852.289062,-109704.617188
62.056,-0.153894,0.690112,-0.621238,29565.111328,-8809.060547,-109587.171875
62.106,-0.171429,0.719747,-0.463338,27549.759766,-5782.960449,-107473.1875
62.157,-0.164208,0.714808,-0.525511,27549.759766,-5739.72998,-107355.742188
62.208,-0.147705,0.868912,-0.532419,27812.634766,-4226.680176,-106063.859375
62.26,-0.176586,0.813593,-0.542288,27812.634766,-4183.450195,-105946.414062
62.312,-0.171429,0.84718,-0.463338,28557.435547,-1416.72998,-98782.328125
62.365,-0.168334,0.998321,-0.248199,28513.623047,-1373.5,-98664.882812
62.417,-0.180712,0.868912,-0.272871,28031.693359,615.079834,-94554.34375
62.469,-0.195152,1.037835,-0.176157,28031.693359,701.540039,-94436.898438
62.52,-0.156988,0.85607,-0.063653,29083.181641,7013.120117,-74119.085938
62.571,-0.1869,1.052652,0.263989,29083.181641,7013.120117,-74119.085938
62.621,-0.178649,0.827423,0.057732,30134.669922,8828.779297,-64606.125
62.672,-0.188963,1.072409,0.263002,30090.857422,8828.779297,-64606.125
62.723,-0.176586,0.940038,0.188986,29608.923828,10601.209961,-53683.832031
62.774,-0.161114,0.983503,0.236356,29608.923828,10601.209961,-53683.832031
62.825,-0.175554,0.909414,0.340965,30397.541016,12157.490234,-44992.976562
62.876,-0.151831,0.880767,0.31728,30397.541016,12114.259766,-44992.976562
62.927,-0.163177,0.904475,0.400178,30660.412109,11898.109375,-33366.019531
62.978,-0.141516,0.849155,0.523537,30660.412109,11854.878906,-33366.019531
63.029,-0.139453,0.807666,0.496891,31668.087891,11379.349609,-23853.054688
63.079,-0.131202,0.835325,0.573868,31624.275391,11379.349609,-23853.054688
63.13,-0.112635,0.770127,0.557091,30660.412109,11638.730469,-17276.195312
63.18,-0.114698,0.780006,0.695253,30660.412109,11595.5,-17276.195312
63.231,-0.112635,0.63578,0.609395,30660.412109,10341.830078,-6353.898438
63.282,-0.105415,0.634792,0.817626,30660.412109,10298.599609,-6353.898438
63.333,-0.105415,0.598242,0.677489,30923.283203,8828.779297,927.625
63.384,-0.101289,0.708881,0.875851,30879.474609,8785.549805,927.625
63.433,-0.067251,0.587375,0.789993,30397.541016,8569.400391,5977.71875
63.484,-0.072408,0.624914,0.785059,30353.728516,8526.169922,5977.71875
63.536,-0.082723,0.53008,0.779137,30134.669922,7531.879883,11145.257812
63.587,-0.08066,0.607132,0.797888,30134.669922,7488.649902,11145.257812
63.638,-0.047653,0.497481,0.826507,30397.541016,6753.739746,13259.25
63.688,-0.043528,0.560703,0.858087,30397.541016,6710.509766,13259.25
63.739,-0.033213,0.393757,0.888681,30660.412109,4981.310059,17722.117188
63.79,-0.052811,0.444137,0.864996,30616.599609,4938.080078,17722.117188
63.841,0.00392,0.399684,0.997237,29608.923828,3684.409912,22772.210938
63.892,-0.03837,0.380915,0.864009,29565.111328,3641.179932,22772.210938
63.942,0.000825,0.359182,0.920261,29346.052734,2949.5,26412.976562
63.993,0.01114,0.353255,0.957762,29346.052734,2949.5,26412.976562
64.044,0.016297,0.280154,0.942959,30397.541016,1393.219971,27939.75
64.095,0.020423,0.363133,0.963683,30353.728516,1393.219971,27939.75
64.146,0.014234,0.284106,0.904471,29608.923828,355.699951,29349.078125
64.197,0.01836,0.236689,0.945919,29565.111328,355.699951,29349.078125
64.247,0.068901,0.12111,1.044607,29083.181641,-163.060059,33694.507812
64.298,0.031769,0.352267,0.985394,29039.369141,-163.060059,33694.507812
64.349,0.034863,0.266324,0.943946,28075.505859,-1935.490234,36630.609375
64.4,0.063744,0.179393,0.958749,28075.505859,-1892.260254,36630.609375
64.451,0.071996,0.216932,0.939011,28294.564453,-1676.109863,38862.046875
64.502,0.076122,0.160624,1.005132,28250.751953,-1676.109863,38862.046875
64.553,0.094688,0.149758,0.984407,27549.759766,-2454.25,38862.046875
64.604,0.095719,0.185321,0.94888,27505.947266,-2454.25,38862.046875
64.655,0.130789,0.026277,1.010066,27024.017578,-4486.060059,40976.03125
64.706,0.11016,0.175442,1.015987,27024.017578,-4486.060059,40976.03125
64.756,0.111191,0.08456,0.956775,27286.888672,-4486.060059,40976.03125
64.807,0.139041,0.060852,0.987368,27243.076172,-4486.060059,40976.03125
64.857,0.169985,0.089499,1.002171,26498.271484,-5523.57959,42502.796875
64.908,0.212274,-0.198953,0.886707,26454.458984,-5523.57959,42385.359375
64.959,0.227746,-0.029043,0.789006,25709.658203,-6042.340332,41798.140625
65.01,0.330892,-0.006322,1.155137,25665.845703,-6042.340332,41798.140625
65.061,0.332955,-0.025091,1.060397,23913.365234,-7814.77002,43207.46875
65.111,0.335018,0.001581,0.864996,23869.552734,-7814.77002,43207.46875
65.162,0.347396,-0.036946,0.896576,21547.517578,-10408.570312,43207.46875
65.213,0.4,0.046034,0.957762,21503.705078,-10365.339844,43207.46875
65.264,0.356679,-0.234515,0.967631,21021.773438,-9630.429688,44616.796875
65.314,0.437133,-0.145609,1.002171,20977.960938,-9630.429688,44616.796875
65.365,0.389685,-0.083374,0.751505,19751.224609,-11662.240234,47552.890625
65.417,0.454667,-0.132767,0.851179,19707.412109,-11662.240234,47435.453125
65.467,0.46395,-0.095229,0.947893,17648.248047,-12181,46143.5625
65.517,0.480454,-0.137706,0.801836,17604.4375,-12181,46026.125
65.568,0.522744,-0.103131,0.855127,15851.957031,-12959.140625,44616.796875
65.619,0.553687,-0.086338,0.882759,15808.144531,-12959.140625,44499.359375
65.67,0.570191,-0.207844,0.669594,15063.341797,-14472.189453,41680.703125
65.721,0.611449,-0.21871,0.840324,15019.529297,-14428.958984,41563.25
65.772,0.549562,-0.111034,0.757426,13792.792969,-13996.660156,40976.03125
65.822,0.584631,-0.192038,0.753479,13748.980469,-13996.660156,40858.59375
65.873,0.664054,-0.186111,0.726833,12478.433594,-16287.849609,37335.265625
65.924,0.659928,-0.314531,0.580776,12434.621094,-16287.849609,37335.265625
65.975,0.716658,-0.247358,0.654791,10901.201172,-17584.75,38039.9375
66.026,0.734193,-0.386644,0.678476,10857.388672,-17541.519531,37922.484375
66.077,0.82393,-0.132767,0.444587,9104.908203,-17065.990234,31463.070312
66.128,0.863125,-0.303665,0.638014,9061.095703,-17065.990234,31345.625
66.179,0.787829,-0.219698,0.431758,5731.384277,-19097.798828,27822.304688
66.231,0.903352,-0.308604,0.341952,5687.572754,-19054.570312,27704.859375
66.282,0.93739,-0.236491,0.371558,4154.151855,-18838.419922,17722.117188
66.334,1.018876,-0.277981,0.23537,4110.340332,-18838.419922,17604.679688
66.385,1.040536,-0.335276,0.17517,1832.116699,-19875.939453,9618.484375
66.436,0.976586,-0.212783,0.125827,1788.304199,-19875.939453,9383.59375
66.487,0.973491,-0.319471,-0.039968,-489.919922,-21172.839844,-4122.460938
66.539,0.985869,-0.249333,-0.090299,-533.731934,-21172.839844,-4357.351562
66.591,1.01475,-0.294774,-0.191947,-2592.895996,-22167.128906,-17276.195312
66.644,0.959051,-0.294774,-0.258068,-2636.70752,-22167.128906,-17393.632812
66.696,0.985869,-0.286871,-0.139643,-3118.639648,-22685.888672,-26789.15625
66.747,0.906447,-0.274029,-0.455443,-3162.45166,-22685.888672,-26906.601562
66.798,0.929139,-0.211795,-0.444587,-3863.443848,-23464.029297,-36184.675781
66.849,0.885817,-0.304653,-0.286687,-3863.443848,-23464.029297,-36302.121094
66.899,0.844559,-0.20488,-0.645909,-3381.511719,-23464.029297,-47106.96875
66.95,0.836307,-0.309592,-0.260041,-3381.511719,-23420.798828,-47341.855469
67.001,0.795049,-0.289835,-0.749531,-2855.767578,-23204.648438,-61787.46875
67.053,0.825993,-0.152524,-0.640975,-2855.767578,-23204.648438,-61904.910156
67.106,0.700155,-0.238467,-0.702161,-1015.663574,-23204.648438,-71182.984375
67.159,0.712532,-0.161415,-0.846245,-1015.663574,-23204.648438,-71300.429688
67.21,0.60526,-0.300701,-0.698214,780.628418,-23723.410156,-73414.421875
67.261,0.575348,-0.115974,-0.835389,780.628418,-23680.179688,-73531.867188
67.311,0.485611,-0.239455,-0.911379,3365.536621,-22426.509766,-82809.945312
67.362,0.437133,-0.181172,-1.031777,3365.536621,-22383.279297,-83044.828125
67.412,0.398969,-0.152524,-0.898549,5994.256348,-21172.839844,-95963.671875
67.463,0.211243,-0.031018,-1.083095,5994.256348,-21129.609375,-96081.117188
67.514,0.205054,-0.086338,-0.949867,9893.525391,-19357.179688,-103832.421875
67.565,0.031769,0.138892,-0.985394,9981.148438,-19270.71875,-103949.867188
67.616,0.0328,0.104317,-1.013027,20014.097656,-11143.480469,-115576.820312
67.667,-0.086849,0.104317,-0.722886,20057.908203,-11100.25,-115459.375
67.718,-0.074471,0.211005,-0.894602,25709.658203,-7555.390137,-111936.054688
67.769,-0.102321,0.21792,-0.861048,25709.658203,-7512.159668,-111818.609375
67.821,-0.141516,0.158649,-1.028817,27024.017578,-5004.819824,-110409.28125
67.874,-0.177617,0.182357,-0.862035,27024.017578,-4961.589844,-110409.28125
67.926,-0.125013,0.237677,-1.038685,28075.505859,-4745.439941,-110409.28125
67.979,-0.272512,0.173466,-0.920261,28075.505859,-4702.209961,-110291.84375
68.031,-0.183806,0.211992,-0.880786,29608.923828,-4486.060059,-109704.617188
68.082,-0.220939,0.264349,-0.884733,29608.923828,-4442.830078,-109587.171875
68.134,-0.275606,0.233725,-0.86993,30397.541016,-3967.299805,-108999.953125
68.185,-0.506653,0.215944,-0.825521,30397.541016,-3967.299805,-108882.515625
68.236,-0.371532,0.052949,-0.747557,31930.962891,-4226.680176,-106063.859375
68.287,-0.282826,0.407587,-0.682424,31930.962891,-4226.680176,-106063.859375
68.338,-0.428262,0.276203,-0.875851,32982.445312,-4226.680176,-108999.953125
68.389,-0.371532,0.294972,-0.912366,32982.445312,-4183.450195,-108882.515625
68.44,-0.436514,0.339425,-0.918287,34033.933594,-3751.149902,-107473.1875
68.491,-0.42001,0.261385,-0.493931,33990.121094,-3707.919922,-107355.742188
68.542,-0.466426,0.34634,-0.729794,33245.320312,-3491.77002,-106063.859375
68.594,-0.506653,0.374988,-1.082108,33245.320312,-3448.540039,-105946.414062
68.645,-0.506653,0.395732,-0.719925,35304.484375,-2454.25,-103832.421875
68.695,-0.543785,0.345352,-0.372545,35304.484375,-2411.02002,-103714.976562
68.746,-0.629397,0.30979,-0.408073,39466.621094,-1157.350098,-101718.429688
68.797,-0.73048,0.446113,-0.411033,39466.621094,-1114.120117,-101600.984375
68.848,-0.716039,0.464882,-0.613343,42314.402344,-638.590088,-90913.578125
68.899,-1.039917,0.5854,-0.559064,42314.402344,-595.360107,-90913.578125
68.949,-0.628365,0.512299,-0.318267,42314.402344,874.459961,-85746.046875
69,-0.513873,0.597254,-0.332083,42314.402344,917.689941,-85746.046875
69.05,-0.735637,0.598242,-0.263989,44154.507812,3425.029785,-77759.851562
69.101,-0.727385,0.617011,-0.19096,44110.695312,3425.029785,-77759.851562
69.152,-0.724291,0.735553,-0.071548,42358.214844,4721.929688,-72709.757812
69.203,-0.657246,0.667391,-0.049837,42358.214844,4721.929688,-72709.757812
69.254,-0.687158,0.685172,-0.020231,43891.636719,5759.450195,-64606.125
69.304,-0.686127,0.799763,-0.067601,43847.824219,5759.450195,-64606.125
69.355,-0.670655,0.678257,-0.000493,43628.761719,7013.120117,-55915.269531
69.406,-0.623208,0.757285,0.028126,43584.949219,7013.120117,-55915.269531
69.457,-0.704693,0.752346,0.068588,42314.402344,7531.879883,-54388.496094
69.508,-0.628365,0.789884,0.0301,42270.589844,7531.879883,-54388.496094
69.559,-0.693347,0.773091,0.141616,41569.597656,8828.779297,-52274.503906
69.61,-0.604642,0.758273,0.160367,41569.597656,8828.779297,-52274.503906
69.661,-0.611862,0.744443,0.192934,42095.34375,9088.160156,-46402.304688
69.712,-0.586075,0.774079,0.12484,42095.34375,9088.160156,-46402.304688
69.763,-0.580918,0.730613,0.268923,42095.34375,9606.919922,-42761.539062
69.814,-0.564415,0.795812,0.244251,42051.53125,9563.689453,-42761.539062
69.865,-0.560289,0.787909,0.227475,41569.597656,8828.779297,-39120.777344
69.916,-0.549974,0.794824,0.38044,41525.785156,8828.779297,-39120.777344
69.968,-0.248788,0.796799,0.287674,40780.984375,9606.919922,-36184.675781
70.018,-0.483961,0.698014,0.299516,40737.171875,9606.919922,-36184.675781
70.069,-0.457143,0.811617,0.523537,40255.238281,9606.919922,-29725.257812
70.12,-0.446828,0.753334,0.425836,40211.425781,9606.919922,-29725.257812
70.171,-0.475709,0.830386,0.36169,39992.367188,9606.919922,-27493.820312
70.222,-0.410727,0.72765,0.474193,39948.554688,9563.689453,-27493.820312
70.272,-0.437545,0.843228,0.504786,38196.074219,9347.540039,-23148.390625
70.323,-0.400413,0.704929,0.36465,38152.261719,9347.540039,-23148.390625
70.374,-0.397318,0.735553,0.439653,37933.203125,10341.830078,-22443.726562
70.425,-0.319959,0.707893,0.568933,37889.390625,10341.830078,-22443.726562
70.475,-0.336462,0.916329,0.625185,37407.460938,10341.830078,-19507.625
70.526,-0.293141,0.782969,0.531432,37363.648438,10298.599609,-19507.625
70.577,-0.280763,0.734565,0.514655,35567.355469,9866.299805,-11403.992188
70.628,-0.277669,0.720735,0.733741,35523.542969,9823.070312,-11403.992188
70.679,-0.270449,0.639731,0.589658,35085.421875,9347.540039,-9994.664062
70.73,-0.307581,0.719747,0.674529,35085.421875,9304.310547,-9994.664062
70.78,-0.22919,0.555764,0.68045,35348.296875,8828.779297,-4122.460938
70.831,-0.245694,0.652573,0.72782,35304.484375,8828.779297,-4122.460938
70.882,-0.196184,0.498469,0.835389,35085.421875,8828.779297,1632.289062
70.932,-0.233316,0.63578,0.867956,35085.421875,8785.549805,1632.289062
70.982,-0.176586,0.468833,0.776177,35567.355469,7272.5,8913.820312
71.032,-0.169366,0.442161,0.872891,35523.542969,7229.269531,8913.820312
71.082,-0.162145,0.461918,0.829468,35304.484375,5240.689941,13376.695312
71.133,-0.145642,0.370048,0.891641,35304.484375,5197.459961,13376.695312
71.184,-0.213718,0.475748,0.880786,35348.296875,4462.549805,20658.21875
71.235,-0.102321,0.331522,0.900523,35304.484375,4419.319824,20658.21875
71.286,-0.131202,0.336462,0.937037,35304.484375,2949.5,24298.984375
71.337,-0.076534,0.222859,0.941972,35304.484375,2949.5,24298.984375
71.388,-0.164208,0.353255,0.929142,35830.226562,1911.979858,27235.085938
71.44,-0.043528,0.203102,1.004145,35786.414062,1911.979858,27235.085938
71.492,-0.148736,0.39672,0.931116,35085.421875,-163.060059,28644.414062
71.545,-0.020835,0.163588,1.018948,35085.421875,-163.060059,28644.414062
71.596,-0.018773,0.130989,0.969604,35348.296875,-1676.109863,34516.609375
71.647,-0.077566,0.281142,1.008092,35304.484375,-1676.109863,34516.609375
71.699,0.034863,-0.006322,0.9173,35085.421875,-3232.390137,39449.265625
71.75,-0.074471,0.285093,0.995263,35085.421875,-3232.390137,38862.046875
71.801,0.027643,0.11222,1.054475,35085.421875,-3491.77002,38862.046875
71.852,0.004951,0.097402,0.952827,35041.609375,-3491.77002,40976.03125
71.903,0.02558,0.136916,1.193625,34559.679688,-5782.960449,40976.03125
71.954,-0.056937,0.04307,0.941972,34515.867188,-5782.960449,42502.796875
72.004,-0.043528,0.048009,1.052502,34033.933594,-7166.319824,42502.796875
72.055,-0.243631,0.195199,0.847232,34033.933594,-18017.048828,45438.90625
72.106,-0.142548,-0.160427,0.959736,34559.679688,-8333.529297,45321.453125
72.157,0.01836,0.089499,0.884733,34559.679688,-9371.050781,45321.453125
72.208,0.069933,-0.009286,1.260732,35085.421875,-9371.050781,45204.015625
72.259,0.066839,0.022325,0.953814,35085.421875,-9371.050781,44616.796875
72.31,0.005982,-0.078435,1.055462,35304.484375,-9371.050781,44616.796875
72.36,0.085405,0.03418,1.057436,35260.671875,-10408.570312,46143.5625
72.411,-0.003301,-0.182159,1.001184,34033.933594,-10408.570312,46143.5625
72.462,0.141104,0.108268,0.982434,33990.121094,-11921.619141,46848.234375
72.514,0.044146,-0.28292,1.098885,32412.892578,-11921.619141,46848.234375
72.567,0.074059,-0.080411,0.920261,31186.158203,-13737.279297,47552.890625
72.619,0.069933,-0.251309,0.978486,31186.158203,-13737.279297,47435.453125
72.671,0.065807,-0.197965,0.968617,32193.833984,-14990.949219,45321.453125
72.722,0.101908,-0.234515,0.940985,32150.021484,-14990.949219,45321.453125
72.773,0.085405,-0.339227,0.9173,31449.029297,-17325.369141,48257.5625
72.824,0.133883,-0.24143,0.997237,31449.029297,-17325.369141,48140.109375
72.875,0.098814,-0.355033,0.98342,32456.705078,-20394.699219,46848.234375
72.927,0.071996,-0.328361,0.841311,32456.705078,-20351.46875,46848.234375
72.979,0.105003,-0.196977,0.895589,32982.445312,-20135.320312,49079.671875
73.031,0.070964,-0.357997,0.864996,32982.445312,-20135.320312,49079.671875
73.084,0.134915,-0.353057,0.970591,33508.191406,-21388.990234,51898.328125
73.135,0.058587,-0.520992,0.961709,33508.191406,-21388.990234,51780.875
73.187,0.07509,-0.394547,0.873877,34033.933594,-25236.458984,48375
73.239,0.076122,-0.42517,0.883746,34033.933594,-25236.458984,48257.5625
73.29,0.066839,-0.470611,0.865982,34559.679688,-25755.21875,48257.5625
73.34,0.106034,-0.392571,0.905457,34515.867188,-25755.21875,48140.109375
73.391,0.099845,-0.458757,0.927169,34296.808594,-26273.978516,47670.34375
73.442,0.109128,-0.407389,0.908418,34252.996094,-26230.75,47552.890625
73.493,0.074059,-0.409365,0.875851,33771.0625,-26014.599609,45438.90625
73.544,0.036926,-0.415292,0.849206,33771.0625,-25971.369141,45438.90625
73.595,0.086436,-0.382693,0.954801,33771.0625,-25755.21875,48375
73.647,0.062713,-0.450854,0.914339,33771.0625,-25711.990234,48375
73.699,0.086436,-0.371827,0.895589,34296.808594,-25236.458984,48962.21875
73.75,0.085405,-0.369851,0.960722,34252.996094,-25193.228516,48844.78125
73.802,0.06065,-0.377754,0.935064,34033.933594,-23982.789062,47552.890625
73.854,0.048272,-0.331325,0.883746,34033.933594,-23939.558594,47552.890625
73.905,0.094688,-0.309592,0.949867,35830.226562,-23464.029297,47552.890625
73.956,0.078185,-0.359972,0.927169,35786.414062,-23420.798828,47552.890625
74.006,0.073027,-0.322434,0.920261,34822.550781,-22426.509766,47552.890625
0,0.036926,0.191248,0.924208,-6974.095703,3122.419922,-96081.117188
0.049,0.026612,0.209029,0.900523,26761.146484,-2454.25,41915.578125
0.099,0.051367,0.247555,1.000197,26761.146484,-2411.02002,41798.140625
0.148,0.058587,0.283118,1.002171,27024.017578,-1676.109863,41210.921875
0.197,-0.004332,0.281142,0.667621,26980.205078,-1676.109863,41093.46875
0.247,0.051367,0.283118,0.990329,26498.271484,-1935.490234,37570.15625
0.297,0.05343,0.369061,0.985394,26498.271484,-1892.260254,37452.71875
0.347,0.042084,0.316705,0.972565,27286.888672,-897.969971,36160.828125
0.397,0.02558,0.319668,0.863022,27286.888672,-854.73999,36043.390625
0.447,0.050335,0.365109,0.884733,27286.888672,355.699951,33224.726562
0.496,0.05343,0.361158,0.9173,27286.888672,398.929932,33107.28125
0.545,0.037958,0.521189,0.939011,27812.634766,1652.599976,32520.0625
0.595,0.049304,0.370048,0.914339,27812.634766,1695.829956,32402.617188
0.645,0.036926,0.541934,0.881772,27812.634766,2949.5,30288.625
0.694,0.054461,0.45204,0.859074,27812.634766,2992.72998,30171.1875
0.744,0.040021,0.546873,0.861048,27812.634766,4981.310059,25238.539062
0.793,0.036926,0.536007,0.846245,27768.822266,4981.310059,25121.09375
0.842,0.077153,0.598242,0.812691,26761.146484,5240.689941,23007.101562
0.891,0.031769,0.59429,0.795914,26761.146484,5240.689941,22889.65625
0.941,0.10294,0.569594,0.68045,27812.634766,7531.879883,17134.898438
0.991,0.048272,0.736541,0.79098,27768.822266,7531.879883,17017.453125
1.041,0.076122,0.706905,0.689332,27024.017578,8828.779297,9148.710938
1.091,0.088499,0.781982,0.755452,27024.017578,8828.779297,9031.265625
1.141,0.142135,0.762225,0.600513,26980.205078,9606.919922,1867.179688
1.191,0.141104,0.721723,0.619264,25972.529297,9606.919922,1749.734375
1.241,0.200928,0.858046,0.562025,25928.716797,9606.919922,-7645.78125
1.292,0.139041,0.716784,0.597553,25446.785156,10601.209961,-7763.226562
1.343,0.238061,0.932135,0.42485,25402.972656,10601.209961,-14927.3125
1.394,0.25147,0.809641,0.513668,23650.492188,11638.730469,-15044.757812
1.445,0.272099,0.928183,0.356755,23606.681641,11638.730469,-22208.84375
1.496,0.287571,0.986466,0.365637,23387.621094,11638.730469,-22326.28125
1.546,0.277256,0.888669,0.382414,23343.808594,11595.5,-29490.367188
1.595,0.291697,0.857058,0.207737,22073.261719,11119.969727,-29490.367188
1.645,0.294791,0.885706,0.293595,22029.449219,11119.969727,-29607.8125
1.695,0.29376,0.908426,0.107076,21810.388672,11638.730469,-39707.996094
1.745,0.283445,0.922256,0.511694,21766.576172,11638.730469,-39825.441406
1.795,0.261784,0.886694,0.137669,20802.712891,12157.490234,-44170.867188
1.845,0.307169,0.836313,0.079443,20802.712891,12114.259766,-44288.3125
1.895,0.322641,0.948928,0.065627,20802.712891,11379.349609,-53683.832031
1.946,0.338112,0.922256,-0.041942,20802.712891,11336.119141,-53801.277344
1.997,0.371119,0.936086,0.00148,21328.457031,11119.969727,-62374.6875
2.047,0.359773,0.864961,-0.07747,21284.644531,11076.740234,-62492.132812
2.097,0.38556,0.95288,-0.138656,20276.96875,9606.919922,-74119.085938
2.148,0.359773,0.773091,-0.33011,20276.96875,9563.689453,-74236.53125
2.198,0.373182,0.95288,-0.25412,20802.712891,7791.259766,-82105.28125
2.247,0.433007,0.838289,-0.439653,20802.712891,7748.029785,-82222.726562
2.298,0.415472,0.979551,-0.185039,20802.712891,4981.310059,-89386.804688
2.349,0.380402,0.679245,-0.50676,20802.712891,4938.080078,-89504.25
2.399,0.38556,0.899536,-0.421889,20802.712891,2171.359863,-99486.992188
2.449,0.395874,0.584412,-0.647883,20802.712891,2171.359863,-99486.992188
2.5,0.403094,0.831374,-0.496891,20802.712891,-163.060059,-107590.625
2.551,0.359773,0.578485,-0.695253,20802.712891,-163.060059,-107590.625
2.601,0.359773,0.83335,-0.552156,21810.388672,-3491.77002,-110409.28125
2.651,0.327798,0.398696,-0.825521,21810.388672,-3491.77002,-110409.28125
2.701,0.339144,0.830386,-0.602487,22599.005859,-5782.960449,-115576.820312
2.752,0.404126,0.265336,-0.795914,22599.005859,-5782.960449,-115576.820312
2.803,0.294791,0.645658,-0.818612,23124.748047,-8852.289062,-115576.820312
2.855,0.388654,0.329547,-0.716964,23124.748047,-8895.519531,-115576.820312
2.906,0.266942,0.489578,-0.826507,23650.492188,-13218.519531,-122153.6875
2.956,0.311294,0.313741,-1.001184,23650.492188,-13218.519531,-122036.242188
3.008,0.233935,0.383878,-0.836376,25972.529297,-16806.609375,-119922.25
3.06,0.274162,0.263361,-0.949867,25972.529297,-16806.609375,-119922.25
3.112,0.163796,0.136916,-0.842297,26235.400391,-19097.798828,-122858.34375
3.163,0.165859,0.233725,-0.913352,26235.400391,-19141.029297,-122740.90625
3.214,0.111191,0.216932,-0.946906,27812.634766,-23723.410156,-121449.015625
3.266,0.101908,0.177418,-0.977499,27812.634766,-23723.410156,-121449.015625
3.317,0.073027,0.137904,-0.989342,30397.541016,-26273.978516,-121449.015625
3.368,0.080248,0.124074,-1.056449,30397.541016,-26273.978516,-121331.578125
3.42,0.061681,0.111232,-0.952827,30397.541016,-27830.259766,-118512.921875
3.471,0.047241,0.108268,-1.041646,30397.541016,-27830.259766,-118512.921875
3.522,0.017329,0.225822,-1.04362,31711.900391,-28089.638672,-118512.921875
3.572,-0.072408,0.09839,-0.799862,31711.900391,-28089.638672,-118395.476562
3.623,-0.128107,0.116171,-1.006119,32237.646484,-28867.779297,-117808.257812
3.674,-0.144611,0.066779,-0.929142,32237.646484,-28867.779297,-117808.257812
3.724,-0.159051,0.088511,-0.958749,36136.910156,-29862.068359,-117808.257812
3.775,-0.15802,0.093451,-0.959736,36136.910156,-29862.068359,-117808.257812
3.825,-0.15802,0.028252,-0.99921,37407.460938,-30121.451172,-117808.257812
3.875,-0.156988,0.050973,-1.017961,37407.460938,-30121.451172,-117690.8125
3.926,-0.273543,0.127037,-0.979473,37670.332031,-31158.970703,-116281.484375
3.977,-0.30655,-0.209819,-0.915326,37670.332031,-31115.740234,-116164.039062
4.028,-0.319959,0.025289,-0.877825,39773.308594,-30899.587891,-113345.382812
4.078,-0.394224,-0.046824,-0.851179,39773.308594,-30899.587891,-113227.9375
4.129,-0.430325,-0.05769,-0.802822,40518.109375,-32455.869141,-110409.28125
4.18,-0.44786,-0.054727,-0.916313,40518.109375,-32455.869141,-110291.84375
4.231,-0.436514,-0.039909,-0.911379,43146.832031,-33709.542969,-108295.289062
4.281,-0.491181,-0.042873,-0.787032,43146.832031,-33709.542969,-108177.84375
4.331,-0.516968,-0.073496,-0.824534,43409.703125,-35006.441406,-106768.515625
4.382,-0.568541,-0.142645,-0.752492,43409.703125,-34963.210938,-106651.078125
4.433,-0.564415,-0.161415,-0.741636,44680.25,-34747.0625,-104654.53125
4.484,-0.600516,-0.121901,-0.729794,44680.25,-34747.0625,-104537.085938
4.535,-0.607736,-0.151536,-0.816639,45994.609375,-37038.25,-98077.664062
4.585,-0.567509,-0.174257,-0.768282,45994.609375,-37038.25,-98077.664062
4.636,-0.612893,-0.121901,-0.785059,46783.226562,-37557.011719,-98782.328125
4.687,-0.63146,-0.185123,-0.736702,46783.226562,-37557.011719,-98664.882812
4.737,-0.694379,-0.207844,-0.698214,47002.285156,-38853.910156,-95963.671875
4.788,-0.667561,-0.240443,-0.751505,47002.285156,-38810.679688,-95963.671875
4.839,-0.693347,-0.224637,-0.704135,47790.902344,-38075.769531,-95259.007812
4.891,-0.689221,-0.188087,-0.655778,47790.902344,-38075.769531,-95259.007812
4.942,-0.711913,-0.116961,-0.592618,47790.902344,-38075.769531,-92322.90625
4.993,-0.723259,-0.188087,-0.555117,47790.902344,-38032.542969,-92322.90625
5.045,-0.824342,-0.080411,-0.675516,48842.390625,-37557.011719,-90091.46875
5.096,-0.788241,-0.175244,-0.674529,48842.390625,-37513.78125,-90208.914062
5.147,-0.842909,-0.105107,-0.557091,50156.75,-36260.109375,-91618.242188
5.197,-0.798556,-0.17722,-0.579789,50156.75,-36216.882812,-91618.242188
5.248,-0.819185,-0.152524,-0.58571,51427.300781,-34747.0625,-90913.578125
5.299,-0.848066,-0.127828,-0.435705,51427.300781,-34747.0625,-90913.578125
5.35,-0.866632,-0.23254,-0.471233,51427.300781,-35525.199219,-86450.710938
5.401,-0.920268,-0.153512,-0.337018,51427.300781,-35525.199219,-86450.710938
5.451,-0.88623,-0.248345,-0.358729,53004.53125,-36778.871094,-83514.609375
5.502,-0.92852,-0.19105,-0.484062,53004.53125,-36735.640625,-83514.609375
5.553,-0.973904,-0.189074,-0.25116,53530.273438,-36260.109375,-81400.617188
5.604,-0.895513,-0.250321,-0.398204,53530.273438,-36260.109375,-81400.617188
5.655,-0.937803,-0.16339,-0.287674,54056.019531,-37297.632812,-76937.742188
5.705,-0.905828,-0.273042,-0.267936,54056.019531,-37297.632812,-76937.742188
5.756,-0.940897,-0.176232,-0.434718,54537.949219,-38335.152344,-73296.984375
5.807,-0.927488,-0.2602,-0.160367,54494.140625,-38335.152344,-73296.984375
5.858,-0.872821,-0.510125,0.17517,54275.078125,-39632.050781,-68951.554688
5.908,-0.956369,-0.395535,0.126813,54275.078125,-39632.050781,-68834.109375
5.959,-0.961527,-0.405413,-0.026152,55589.4375,-42182.621094,-53566.386719
6.01,-0.958432,-0.276005,0.092273,55589.4375,-42139.390625,-53566.386719
6.061,-0.917174,-0.379729,0.101155,56378.054688,-41923.242188,-47106.96875
6.111,-0.974936,-0.342191,0.146551,56334.242188,-41923.242188,-47106.96875
6.161,-0.903765,-0.391584,0.04589,55852.3125,-42182.621094,-42644.097656
6.212,-0.945023,-0.32441,0.144577,55852.3125,-42182.621094,-42644.097656
6.262,-0.940897,-0.38862,-0.043916,55852.3125,-42960.761719,-41234.769531
6.313,-0.90067,-0.512101,0.211685,55808.5,-42960.761719,-41234.769531
6.363,-0.929551,-0.43011,0.144577,55063.695312,-42960.761719,-38298.667969
6.414,-0.927488,-0.49432,0.081417,55019.882812,-42960.761719,-38298.667969
6.465,-0.866632,-0.458757,0.170236,54275.078125,-44733.191406,-30312.476562
6.516,-0.864569,-0.463697,0.179118,54231.265625,-44733.191406,-30312.476562
6.567,-0.917174,-0.436037,0.247212,54056.019531,-44733.191406,-26554.265625
6.617,-0.854255,-0.50321,0.307411,54056.019531,-44689.960938,-26554.265625
6.668,-0.890356,-0.418255,0.293595,54537.949219,-44473.8125,-21504.179688
6.719,-0.837751,-0.414304,0.450508,54494.140625,-44473.8125,-21504.179688
6.77,-0.84394,-0.362936,0.406099,52741.660156,-44473.8125,-12695.875
6.82,-0.740794,-0.468636,0.548209,52741.660156,-44473.8125,-12695.875
6.871,-0.8295,-0.193026,0.557091,54318.890625,-44473.8125,-5414.351562
6.921,-0.80165,-0.401462,0.533406,54275.078125,-44430.582031,-5414.351562
6.972,-0.823311,-0.283908,0.71203,54275.078125,-43220.140625,5507.945312
7.022,-0.68097,-0.399486,0.634067,54275.078125,-43176.910156,5507.945312
7.072,-0.656215,-0.285884,0.750518,54537.949219,-42442,12789.46875
7.123,-0.654152,-0.304653,0.717951,54494.140625,-42398.769531,12789.46875
7.174,-0.755235,-0.249333,0.661699,52741.660156,-40626.339844,17252.34375
7.224,-0.676844,-0.254272,0.819599,52741.660156,-40626.339844,17252.34375
7.274,-0.646931,-0.150548,0.718938,53530.273438,-41145.101562,21597.773438
7.324,-0.557194,-0.318483,0.641962,53486.464844,-41101.871094,21597.773438
7.374,-0.602579,-0.252297,0.889667,52215.914062,-39848.199219,25238.539062
7.425,-0.449923,-0.284896,0.686371,52172.101562,-39848.199219,25238.539062
7.475,-0.456111,-0.421219,1.1729,50901.554688,-40107.582031,28174.632812
7.525,-0.39835,-0.119925,0.782098,50857.742188,-40064.351562,28174.632812
7.575,-0.406601,-0.150548,0.864996,48842.390625,-38075.769531,37687.59375
7.625,-0.525219,-0.356021,0.957762,48798.578125,-38032.542969,37687.59375
7.675,-0.391129,-0.146597,0.866969,48316.648438,-37297.632812,40506.25
7.726,-0.414853,-0.254272,0.963683,48272.835938,-37297.632812,40506.25
7.777,-0.344714,-0.24143,0.969604,46783.226562,-37297.632812,42737.6875
7.828,-0.381846,-0.185123,0.886707,46783.226562,-37297.632812,42737.6875
7.879,-0.287984,-0.205868,0.96467,47046.097656,-37816.390625,45673.796875
7.93,-0.34884,-0.193026,0.844271,47002.285156,-37816.390625,45673.796875
7.98,-0.508716,-0.189074,1.014014,45468.867188,-37816.390625,48609.890625
8.031,-0.279732,-0.183147,0.874864,45425.054688,-37816.390625,48609.890625
8.082,-0.234348,-0.197965,1.072239,44154.507812,-37816.390625,51546
8.133,-0.233316,-0.198953,0.883746,44110.695312,-37773.160156,51546
8.185,-0.213718,-0.184135,1.068292,43891.636719,-37038.25,53659.984375
8.236,-0.215781,-0.206856,0.939011,43847.824219,-37038.25,53659.984375
8.287,-0.161114,-0.184135,0.984407,43409.703125,-38075.769531,55891.421875
8.338,-0.142548,-0.209819,0.859074,43365.890625,-38075.769531,55891.421875
8.39,-0.054874,-0.284896,1.048554,41306.726562,-38075.769531,61058.953125
8.442,-0.079629,-0.185123,0.945919,41262.914062,-38075.769531,61058.953125
8.494,0.012171,-0.160427,1.015,39247.5625,-38335.152344,63172.953125
8.546,-0.040433,-0.221673,0.925195,39203.75,-38291.921875,63172.953125
8.597,0.008045,-0.161415,0.952827,38721.820312,-38075.769531,68340.484375
8.648,0.089531,-0.229576,0.98342,38678.007812,-38032.542969,68340.484375
8.699,0.088499,-0.181172,0.954801,37670.332031,-37297.632812,70454.46875
8.75,0.129758,-0.272054,1.04362,37626.519531,-37297.632812,70454.46875
8.801,0.138009,-0.162402,0.90151,36355.972656,-37816.390625,71276.578125
8.852,0.198865,-0.190062,1.025856,36312.160156,-37773.160156,71276.578125
8.903,0.177205,-0.169317,0.924208,34296.808594,-36043.960938,78558.109375
8.954,0.195771,-0.196977,0.989342,34252.996094,-36000.730469,78558.109375
9.004,0.214337,-0.198953,0.998224,30923.283203,-35784.582031,81494.21875
